gx,gy,gz,ax,ay,az,gtemp,magx,magy,magz
1.374,2.191,-0.305,-0.020,-0.010,0.996,40.95,-602.00,-783.00,-907.00
1.763,1.405,-0.336,-0.019,-0.009,0.996,41.19,-610.00,-786.00,-900.00
1.733,1.763,-0.328,-0.020,-0.011,1.000,41.09,-623.00,-786.00,-907.00
1.527,1.626,-0.252,-0.024,-0.011,0.988,40.91,-610.00,-786.00,-895.00
1.679,1.382,-0.115,-0.024,-0.012,0.996,40.77,-612.00,-786.00,-905.00
1.588,1.595,-0.282,-0.023,-0.010,0.995,40.91,-616.00,-783.00,-897.00
1.519,1.519,-0.092,-0.022,-0.014,0.997,40.86,-618.00,-791.00,-902.00
1.573,1.511,-0.229,-0.021,-0.008,0.991,40.95,-600.00,-783.00,-902.00
1.382,1.802,-0.389,-0.019,-0.011,0.999,40.95,-605.00,-788.00,-900.00
1.366,1.580,-0.328,-0.025,-0.009,0.995,40.91,-615.00,-775.00,-892.00
1.443,1.519,-0.198,-0.022,-0.012,1.000,40.91,-623.00,-788.00,-897.00
1.580,1.718,-0.198,-0.020,-0.009,0.992,40.86,-615.00,-772.00,-922.00
1.634,1.328,0.153,-0.027,-0.010,0.997,40.91,-623.00,-788.00,-910.00
1.298,1.626,-0.435,-0.030,-0.006,0.992,40.72,-618.00,-767.00,-910.00
1.435,1.939,-0.344,-0.017,-0.011,0.994,40.86,-633.00,-737.00,-905.00
1.756,1.466,0.031,-0.020,-0.009,0.997,40.91,-615.00,-711.00,-885.00
1.557,1.382,-0.130,-0.021,-0.015,1.006,40.86,-638.00,-708.00,-877.00
2.397,-3.794,0.145,-0.065,-0.048,1.027,40.67,-633.00,-716.00,-892.00
2.702,-4.672,-0.107,-0.033,-0.032,1.035,40.91,-641.00,-726.00,-880.00
1.634,0.924,-0.260,-0.006,-0.007,0.967,40.53,-631.00,-711.00,-882.00
1.382,2.275,-0.305,-0.019,-0.017,0.997,40.67,-636.00,-706.00,-887.00
1.947,1.031,-0.313,-0.022,-0.016,0.998,40.34,-628.00,-701.00,-880.00
1.298,1.931,-0.229,-0.022,-0.009,0.995,40.67,-626.00,-711.00,-887.00
1.435,1.641,-0.252,-0.022,-0.008,1.003,40.67,-636.00,-726.00,-885.00
1.435,1.427,-0.252,-0.017,-0.010,0.997,40.34,-650.00,-723.00,-877.00
1.351,1.595,-0.298,-0.018,-0.008,0.996,40.39,-641.00,-708.00,-872.00
1.351,1.603,-0.191,-0.024,-0.013,0.999,40.58,-636.00,-721.00,-882.00
1.733,1.496,-0.183,-0.021,-0.012,0.995,40.34,-638.00,-726.00,-887.00
1.802,1.611,-0.168,-0.023,-0.010,1.001,40.67,-636.00,-721.00,-887.00
1.473,1.496,-0.069,-0.023,-0.010,0.998,40.44,-647.00,-718.00,-892.00
1.466,1.267,-0.115,-0.019,-0.009,0.993,40.39,-626.00,-716.00,-872.00
1.290,1.718,-0.130,-0.017,-0.010,0.989,40.15,-636.00,-721.00,-887.00
1.786,1.695,-0.130,-0.019,-0.012,0.993,40.39,-643.00,-728.00,-877.00
1.641,1.374,-0.252,-0.021,-0.013,0.993,40.39,-633.00,-703.00,-895.00
1.542,1.634,-0.412,-0.018,-0.009,0.992,40.25,-631.00,-703.00,-887.00
1.687,1.595,-0.374,-0.022,-0.010,0.989,40.34,-628.00,-708.00,-877.00
1.405,1.458,-0.008,-0.021,-0.011,0.990,40.15,-645.00,-711.00,-890.00
1.779,1.580,-0.084,-0.023,-0.010,0.999,40.34,-631.00,-723.00,-887.00
1.695,1.771,-0.328,-0.018,-0.010,0.996,40.15,-638.00,-721.00,-882.00
1.718,1.366,-0.191,-0.027,-0.011,0.996,40.34,-638.00,-721.00,-877.00
1.687,1.748,-0.198,-0.021,-0.010,0.994,40.06,-631.00,-716.00,-872.00
1.733,1.626,-0.420,-0.022,-0.011,0.992,40.39,-623.00,-706.00,-880.00
1.420,1.718,-0.443,-0.019,-0.010,0.991,40.15,-633.00,-711.00,-892.00
1.626,1.611,-0.046,-0.019,-0.012,0.988,40.25,-645.00,-718.00,-895.00
1.695,1.580,-0.221,-0.021,-0.009,0.993,40.01,-631.00,-718.00,-877.00
1.237,1.763,-0.214,-0.018,-0.009,0.998,39.92,-636.00,-711.00,-887.00
1.542,1.496,-0.076,-0.020,-0.009,1.000,39.87,-650.00,-713.00,-885.00
1.405,1.511,-0.053,-0.021,-0.012,0.996,39.82,-641.00,-721.00,-885.00
1.771,1.450,-0.351,-0.019,-0.008,0.991,39.92,-641.00,-721.00,-897.00
1.679,1.763,-0.076,-0.021,-0.011,0.992,39.92,-647.00,-706.00,-885.00
1.557,1.290,-0.397,-0.021,-0.008,0.993,39.87,-641.00,-721.00,-877.00
1.214,1.595,-0.282,-0.019,-0.013,0.992,39.73,-643.00,-721.00,-875.00
1.687,1.672,-0.076,-0.023,-0.012,0.994,39.87,-631.00,-708.00,-875.00
1.580,1.450,-0.122,-0.016,-0.009,0.992,39.92,-647.00,-723.00,-877.00
1.489,1.672,-0.420,-0.022,-0.009,0.996,39.64,-645.00,-726.00,-875.00
1.588,1.878,-0.412,-0.020,-0.009,0.990,39.73,-638.00,-708.00,-887.00
1.656,1.496,-0.183,-0.019,-0.010,0.998,39.64,-652.00,-703.00,-885.00
1.756,1.588,0.000,-0.022,-0.013,0.997,39.73,-626.00,-718.00,-880.00
1.733,1.641,-0.336,-0.023,-0.009,0.997,39.68,-636.00,-721.00,-885.00
1.435,1.527,-0.115,-0.020,-0.013,0.995,39.82,-643.00,-718.00,-887.00
1.634,1.450,-0.092,-0.022,-0.010,0.991,39.64,-641.00,-726.00,-885.00
1.573,1.527,-0.344,-0.020,-0.010,0.994,39.64,-638.00,-701.00,-877.00
1.382,1.542,-0.023,-0.018,-0.013,0.989,39.54,-638.00,-731.00,-885.00
1.611,1.534,-0.237,-0.019,-0.013,0.998,39.40,-626.00,-708.00,-890.00
1.763,1.718,-0.053,-0.019,-0.007,0.993,39.64,-641.00,-711.00,-870.00
1.496,1.664,-0.267,-0.019,-0.006,0.989,39.40,-643.00,-716.00,-870.00
1.435,1.649,-0.061,-0.019,-0.012,0.990,39.49,-641.00,-723.00,-887.00
1.519,1.695,-0.191,-0.021,-0.005,0.993,39.49,-643.00,-718.00,-880.00
1.420,1.786,-0.198,-0.016,-0.010,0.990,39.49,-641.00,-716.00,-890.00
1.649,1.580,-0.282,-0.016,-0.010,0.996,39.40,-626.00,-721.00,-875.00
1.519,1.748,-0.557,-0.021,-0.011,0.991,39.35,-638.00,-728.00,-885.00
1.695,1.565,0.000,-0.021,-0.007,0.994,39.35,-636.00,-731.00,-892.00
1.679,1.412,-0.458,-0.022,-0.013,0.993,39.17,-641.00,-726.00,-890.00
1.550,1.771,-0.115,-0.022,-0.010,0.990,39.54,-641.00,-716.00,-887.00
1.511,1.458,-0.137,-0.022,-0.007,0.995,39.17,-628.00,-706.00,-885.00
1.542,1.565,-0.214,-0.017,-0.012,0.984,39.21,-641.00,-726.00,-882.00
1.443,1.618,-0.221,-0.011,-0.011,0.987,39.17,-633.00,-711.00,-890.00
1.420,1.595,-0.153,-0.020,-0.010,0.989,39.35,-633.00,-703.00,-892.00
1.344,1.542,-0.221,-0.019,-0.011,0.992,39.31,-643.00,-713.00,-885.00
1.397,1.809,-0.191,-0.016,-0.011,0.992,38.98,-636.00,-713.00,-892.00
1.573,1.557,-0.313,-0.020,-0.008,0.991,39.02,-633.00,-695.00,-880.00
1.557,1.763,-0.031,-0.022,-0.010,0.992,39.02,-652.00,-711.00,-885.00
1.435,1.664,-0.214,-0.022,-0.009,0.991,39.12,-631.00,-718.00,-885.00
1.351,1.389,-0.069,-0.018,-0.013,0.994,38.98,-645.00,-723.00,-890.00
1.580,1.496,-0.015,-0.018,-0.010,0.995,38.98,-643.00,-721.00,-892.00
1.534,1.458,-0.092,-0.022,-0.010,0.988,38.79,-631.00,-718.00,-895.00
1.534,1.687,-0.206,-0.019,-0.009,0.989,38.84,-638.00,-713.00,-867.00
1.878,1.763,-0.305,-0.016,-0.010,0.998,38.98,-643.00,-716.00,-907.00
1.702,1.466,-0.176,-0.019,-0.008,0.993,38.79,-647.00,-718.00,-892.00
1.618,1.580,-0.153,-0.018,-0.012,0.988,38.69,-638.00,-723.00,-890.00
1.435,1.611,-0.130,-0.024,-0.010,0.994,38.65,-650.00,-706.00,-895.00
1.473,1.443,-0.328,-0.019,-0.009,0.993,38.65,-641.00,-706.00,-890.00
1.496,1.603,-0.107,-0.021,-0.011,0.993,38.65,-652.00,-723.00,-880.00
1.290,1.443,-0.107,-0.019,-0.010,0.992,38.65,-643.00,-718.00,-895.00
1.634,1.588,-0.206,-0.019,-0.009,0.995,38.51,-650.00,-698.00,-882.00
1.580,1.649,-0.519,-0.019,-0.010,0.997,38.84,-641.00,-726.00,-882.00
1.573,1.794,-0.313,-0.017,-0.010,0.989,38.69,-645.00,-716.00,-897.00
1.809,1.756,0.008,-0.021,-0.007,0.990,38.65,-638.00,-723.00,-880.00
1.718,1.382,-0.153,-0.021,-0.012,0.990,38.51,-641.00,-713.00,-885.00
1.580,1.756,-0.168,-0.020,-0.009,0.993,38.60,-641.00,-723.00,-900.00
1.611,1.626,-0.221,-0.021,-0.007,0.990,38.65,-631.00,-721.00,-892.00
1.603,1.565,-0.084,-0.022,-0.013,0.995,38.51,-641.00,-721.00,-885.00
1.733,1.527,-0.137,-0.019,-0.014,0.994,38.37,-638.00,-708.00,-902.00
1.328,1.847,-0.191,-0.021,-0.010,0.989,38.51,-638.00,-713.00,-887.00
1.557,1.618,-0.115,-0.015,-0.008,0.993,38.37,-633.00,-723.00,-892.00
1.771,1.611,-0.038,-0.020,-0.013,0.995,38.37,-638.00,-723.00,-885.00
1.641,1.351,-0.527,-0.016,-0.008,0.988,38.32,-638.00,-718.00,-882.00
1.718,1.489,-0.198,-0.016,-0.008,0.992,38.46,-628.00,-723.00,-887.00
1.496,1.725,-0.053,-0.021,-0.009,0.998,38.46,-638.00,-723.00,-882.00
1.481,1.664,-0.328,-0.017,-0.010,0.990,38.37,-641.00,-713.00,-877.00
1.679,1.489,-0.061,-0.020,-0.010,0.994,38.13,-626.00,-723.00,-887.00
1.534,1.511,-0.359,-0.020,-0.008,0.992,38.27,-645.00,-711.00,-880.00
1.702,1.595,0.000,-0.014,-0.009,0.990,38.37,-628.00,-728.00,-877.00
1.435,1.718,-0.069,-0.018,-0.014,0.989,38.32,-623.00,-726.00,-895.00
1.252,1.267,-0.282,-0.021,-0.013,0.990,38.13,-643.00,-706.00,-882.00
1.496,1.435,0.084,-0.020,-0.009,0.994,38.32,-638.00,-733.00,-897.00
1.557,1.779,-0.466,-0.018,-0.007,0.991,38.27,-643.00,-716.00,-890.00
1.634,1.267,-0.168,-0.021,-0.010,0.992,38.13,-638.00,-708.00,-875.00
1.588,1.489,-0.313,-0.019,-0.009,0.995,37.99,-633.00,-728.00,-905.00
1.481,1.573,0.069,-0.018,-0.011,0.987,38.08,-650.00,-723.00,-880.00
1.740,1.595,-0.221,-0.018,-0.012,0.987,38.18,-636.00,-708.00,-902.00
1.534,1.481,-0.282,-0.022,-0.012,0.989,38.08,-638.00,-728.00,-890.00
1.565,1.519,-0.076,-0.017,-0.011,0.989,37.99,-652.00,-721.00,-885.00
1.809,1.794,0.008,-0.017,-0.012,0.989,37.94,-645.00,-726.00,-900.00
1.687,1.458,-0.489,-0.020,-0.004,0.990,37.94,-631.00,-737.00,-895.00
1.489,1.527,0.038,-0.020,-0.011,0.993,37.94,-655.00,-721.00,-885.00
1.649,1.489,-0.153,-0.020,-0.010,0.988,37.99,-631.00,-721.00,-887.00
1.298,1.534,-0.092,-0.019,-0.006,0.992,37.85,-655.00,-728.00,-897.00
1.710,1.389,-0.176,-0.019,-0.012,0.990,37.66,-643.00,-718.00,-890.00
1.656,1.740,-0.473,-0.014,-0.011,0.988,37.75,-643.00,-733.00,-892.00
1.595,1.366,-0.427,-0.021,-0.011,0.986,37.94,-652.00,-726.00,-890.00
1.473,1.351,-0.069,-0.018,-0.008,0.992,37.80,-641.00,-718.00,-890.00
1.580,1.473,-0.076,-0.016,-0.007,0.987,37.61,-647.00,-721.00,-897.00
1.710,1.366,-0.160,-0.025,-0.011,0.992,37.80,-650.00,-718.00,-892.00
1.634,1.695,-0.145,-0.020,-0.006,0.992,37.85,-638.00,-733.00,-895.00
1.473,1.588,-0.191,-0.018,-0.011,0.991,37.80,-660.00,-723.00,-900.00
1.664,1.481,-0.115,-0.014,-0.013,0.989,37.80,-641.00,-726.00,-890.00
1.611,1.496,-0.252,-0.017,-0.009,0.993,37.75,-633.00,-733.00,-900.00
1.649,1.313,-0.260,-0.018,-0.011,0.992,37.61,-636.00,-716.00,-895.00
1.672,1.412,-0.321,-0.018,-0.010,0.994,37.75,-631.00,-723.00,-890.00
1.626,1.672,-0.252,-0.021,-0.008,0.992,37.61,-647.00,-723.00,-892.00
1.832,1.473,-0.145,-0.017,-0.010,0.995,37.33,-641.00,-726.00,-887.00
1.466,1.313,-0.260,-0.019,-0.010,0.986,37.61,-650.00,-713.00,-890.00
1.725,1.389,-0.298,-0.017,-0.007,0.984,37.61,-641.00,-723.00,-905.00
1.664,1.580,-0.420,-0.015,-0.009,0.990,37.28,-643.00,-723.00,-890.00
1.374,1.313,0.023,-0.017,-0.011,0.992,37.42,-636.00,-701.00,-892.00
1.641,1.557,-0.198,-0.022,-0.013,0.992,37.57,-616.00,-716.00,-892.00
1.412,1.389,-0.252,-0.022,-0.012,0.996,37.42,-655.00,-723.00,-885.00
1.466,1.611,-0.061,-0.016,-0.012,0.989,37.28,-652.00,-718.00,-895.00
1.412,1.374,-0.214,-0.016,-0.010,0.987,37.28,-650.00,-726.00,-892.00
1.626,1.649,-0.344,-0.019,-0.012,0.991,37.33,-643.00,-721.00,-882.00
1.489,1.641,-0.183,-0.019,-0.008,0.982,37.28,-638.00,-721.00,-887.00
1.397,1.435,-0.160,-0.016,-0.010,0.988,37.14,-650.00,-726.00,-877.00
1.626,1.550,-0.183,-0.016,-0.012,0.989,37.33,-638.00,-726.00,-895.00
1.450,1.473,-0.137,-0.018,-0.008,0.986,37.24,-645.00,-728.00,-885.00
1.626,1.573,-0.069,-0.017,-0.012,0.990,36.95,-645.00,-728.00,-890.00
1.450,1.527,-0.130,-0.021,-0.008,0.993,37.14,-638.00,-718.00,-907.00
1.809,1.618,-0.427,-0.013,-0.010,0.990,37.14,-657.00,-713.00,-900.00
1.809,1.786,-0.122,-0.016,-0.011,0.985,37.05,-662.00,-733.00,-890.00
1.466,1.687,-0.023,-0.010,-0.010,0.995,37.14,-647.00,-723.00,-892.00
1.580,1.626,-0.176,-0.015,-0.009,0.986,36.95,-641.00,-723.00,-892.00
1.435,1.267,-0.122,-0.020,-0.014,0.988,36.91,-645.00,-726.00,-890.00
1.809,1.206,-0.412,-0.004,-0.011,0.977,36.95,-652.00,-726.00,-897.00
1.366,1.511,-0.244,-0.021,-0.012,0.990,36.95,-647.00,-726.00,-895.00
1.344,1.664,-0.282,-0.016,-0.012,0.988,36.95,-647.00,-721.00,-887.00
1.931,1.489,-0.244,-0.020,-0.013,0.994,37.05,-628.00,-733.00,-887.00
1.382,1.634,-0.214,-0.018,-0.011,0.990,36.95,-638.00,-726.00,-885.00
1.557,1.489,-0.351,-0.018,-0.009,0.986,36.77,-643.00,-733.00,-887.00
1.397,1.550,-0.244,-0.020,-0.012,0.983,37.05,-650.00,-726.00,-885.00
1.427,1.328,-0.191,-0.020,-0.011,0.989,36.58,-628.00,-726.00,-885.00
1.519,1.511,0.061,-0.014,-0.012,0.990,36.77,-645.00,-723.00,-890.00
1.542,1.695,-0.076,-0.019,-0.011,0.987,36.58,-647.00,-728.00,-897.00
1.458,1.557,-0.176,-0.016,-0.010,0.989,36.77,-631.00,-726.00,-895.00
1.519,1.481,0.069,-0.015,-0.008,0.989,36.62,-638.00,-728.00,-892.00
1.718,1.313,-0.206,-0.017,-0.008,0.988,36.72,-643.00,-728.00,-900.00
1.908,1.603,-0.115,-0.017,-0.011,0.985,36.53,-643.00,-723.00,-900.00
1.527,1.718,-0.053,-0.018,-0.010,0.989,36.62,-647.00,-721.00,-900.00
1.588,1.443,-0.168,-0.020,-0.012,0.983,36.62,-641.00,-737.00,-890.00
1.817,1.443,-0.405,-0.017,-0.010,0.985,36.62,-638.00,-745.00,-902.00
2.084,1.634,-0.069,-0.018,-0.008,0.987,36.81,-633.00,-728.00,-885.00
1.664,1.710,-0.183,-0.019,-0.007,0.985,36.62,-643.00,-708.00,-915.00
1.687,1.870,-0.313,-0.004,-0.011,0.978,36.44,-655.00,-731.00,-890.00
1.748,1.290,-0.275,-0.019,-0.009,0.986,36.62,-641.00,-723.00,-895.00
1.832,1.351,-0.145,-0.030,-0.012,0.997,36.53,-638.00,-731.00,-897.00
1.618,1.321,-0.313,-0.017,-0.009,0.989,36.29,-645.00,-726.00,-892.00
1.534,1.351,-0.084,-0.025,-0.011,0.989,36.29,-638.00,-723.00,-885.00
1.756,1.534,-0.344,-0.016,-0.012,0.988,36.39,-643.00,-733.00,-902.00
1.534,1.771,-0.237,-0.016,-0.010,0.984,36.11,-641.00,-731.00,-895.00
1.550,1.702,-0.061,-0.016,-0.013,0.990,36.25,-641.00,-718.00,-895.00
1.771,1.618,-0.290,-0.016,-0.010,0.983,36.20,-638.00,-731.00,-887.00
1.504,1.656,-0.336,-0.016,-0.012,0.986,36.39,-655.00,-718.00,-902.00
1.939,1.443,-0.137,-0.016,-0.012,0.986,36.01,-643.00,-728.00,-902.00
1.710,1.359,-0.076,-0.014,-0.007,0.990,36.20,-647.00,-728.00,-895.00
1.687,1.931,-0.305,-0.006,-0.015,0.978,36.20,-643.00,-731.00,-882.00
1.626,1.939,-0.084,-0.017,-0.007,0.981,36.20,-645.00,-728.00,-887.00
1.794,1.420,-0.267,-0.013,-0.014,0.988,36.11,-652.00,-731.00,-900.00
1.595,1.260,-0.290,-0.016,-0.012,0.985,36.25,-641.00,-731.00,-905.00
1.511,1.618,-0.344,-0.019,-0.012,0.989,36.20,-650.00,-723.00,-895.00
1.733,1.718,-0.244,-0.017,-0.008,0.986,36.06,-647.00,-733.00,-895.00
1.786,1.435,0.076,-0.017,-0.010,0.988,36.01,-638.00,-736.00,-887.00
1.725,1.351,-0.115,-0.014,-0.009,0.985,36.01,-645.00,-736.00,-900.00
1.809,1.519,-0.198,-0.015,-0.011,0.995,35.92,-647.00,-718.00,-905.00
1.580,1.565,-0.214,-0.012,-0.008,0.990,35.92,-631.00,-723.00,-902.00
1.634,1.183,-0.214,-0.017,-0.009,0.985,36.25,-655.00,-736.00,-897.00
1.863,1.534,-0.229,-0.014,-0.009,0.988,35.73,-641.00,-703.00,-900.00
1.321,1.443,-0.107,-0.015,-0.010,0.982,35.68,-660.00,-716.00,-892.00
1.847,1.565,-0.153,-0.012,-0.011,0.987,36.11,-660.00,-736.00,-885.00
1.794,1.649,-0.405,-0.018,-0.013,0.986,35.92,-647.00,-733.00,-890.00
1.634,1.412,-0.275,-0.019,-0.011,0.979,35.78,-652.00,-726.00,-897.00
1.565,1.313,0.061,-0.016,-0.012,0.987,35.73,-641.00,-733.00,-897.00
1.634,1.466,-0.328,-0.013,-0.014,0.978,35.73,-650.00,-731.00,-902.00
1.580,1.550,-0.130,-0.017,-0.008,0.984,35.73,-645.00,-728.00,-897.00
1.634,1.427,-0.137,-0.015,-0.015,0.981,35.49,-643.00,-723.00,-890.00
1.611,1.588,-0.244,-0.011,-0.008,0.987,35.78,-643.00,-711.00,-882.00
1.710,1.588,-0.107,-0.016,-0.009,0.989,35.73,-647.00,-723.00,-892.00
1.756,1.481,-0.244,-0.016,-0.009,0.989,35.68,-643.00,-733.00,-897.00
1.649,1.489,-0.244,-0.016,-0.011,0.981,35.78,-641.00,-711.00,-900.00
1.290,1.550,-0.122,-0.017,-0.009,0.983,35.59,-638.00,-708.00,-892.00
1.672,1.542,-0.153,-0.018,-0.006,0.985,35.73,-645.00,-721.00,-890.00
1.863,1.702,-0.099,-0.012,-0.012,0.988,35.54,-643.00,-731.00,-897.00
1.641,1.496,-0.160,-0.016,-0.010,0.981,35.68,-647.00,-721.00,-900.00
1.511,1.420,-0.427,-0.018,-0.013,0.989,35.54,-633.00,-736.00,-885.00
1.588,1.718,0.015,-0.016,-0.010,0.982,35.54,-657.00,-731.00,-895.00
1.733,1.534,-0.359,-0.015,-0.007,0.985,35.35,-650.00,-728.00,-900.00
1.527,1.756,0.023,-0.013,-0.010,0.978,35.35,-650.00,-726.00,-895.00
1.466,1.412,-0.244,-0.017,-0.009,0.986,35.54,-645.00,-736.00,-885.00
1.702,1.405,-0.305,-0.017,-0.011,0.986,35.26,-643.00,-736.00,-885.00
1.725,2.244,-0.221,0.001,-0.016,0.975,35.35,-643.00,-723.00,-895.00
1.588,0.153,-0.252,-0.029,-0.006,0.999,35.54,-657.00,-721.00,-902.00
1.427,1.779,-0.412,-0.015,-0.010,0.982,35.21,-645.00,-736.00,-887.00
1.534,1.580,0.130,-0.012,-0.010,0.988,35.26,-650.00,-721.00,-897.00
1.557,1.137,0.038,-0.009,-0.009,0.980,35.26,-636.00,-726.00,-907.00
1.939,1.588,-0.328,-0.014,-0.009,0.993,35.21,-643.00,-713.00,-872.00
1.603,1.443,-0.282,-0.016,-0.008,0.984,35.26,-650.00,-733.00,-882.00
1.718,1.626,-0.015,-0.011,-0.010,0.982,35.07,-647.00,-736.00,-900.00
1.519,1.702,-0.252,-0.018,-0.010,0.989,35.07,-621.00,-703.00,-880.00
1.687,1.374,-0.305,-0.016,-0.011,0.987,35.17,-638.00,-716.00,-877.00
1.573,1.496,-0.282,-0.018,-0.010,0.983,35.02,-628.00,-723.00,-882.00
1.748,1.305,0.183,-0.016,-0.010,0.991,35.02,-638.00,-721.00,-882.00
1.481,1.710,-0.107,-0.010,-0.011,0.982,35.02,-638.00,-723.00,-870.00
1.786,1.550,-0.053,-0.011,-0.010,0.984,34.98,-621.00,-708.00,-865.00
1.557,1.504,-0.221,-0.018,-0.010,0.991,34.98,-633.00,-721.00,-880.00
1.771,1.481,-0.031,-0.014,-0.010,0.985,35.02,-638.00,-713.00,-882.00
1.733,1.328,-0.107,-0.014,-0.012,0.983,35.02,-631.00,-733.00,-875.00
1.725,1.466,-0.260,-0.016,-0.013,0.982,35.07,-618.00,-718.00,-870.00
1.794,1.321,-0.237,-0.015,-0.010,0.981,34.74,-631.00,-713.00,-877.00
1.672,1.427,-0.076,-0.015,-0.012,0.983,34.69,-638.00,-718.00,-875.00
1.573,1.626,-0.366,-0.015,-0.013,0.990,34.84,-623.00,-718.00,-882.00
1.885,1.634,0.252,-0.013,-0.013,0.990,34.74,-641.00,-716.00,-897.00
1.748,1.397,-0.137,-0.014,-0.015,0.986,34.84,-633.00,-718.00,-885.00
1.634,1.298,-0.061,-0.015,-0.012,0.990,34.69,-643.00,-726.00,-872.00
1.893,1.542,-0.206,-0.017,-0.013,0.986,34.84,-645.00,-728.00,-882.00
1.565,1.626,-0.160,-0.014,-0.012,0.982,34.74,-645.00,-718.00,-882.00
1.687,1.321,-0.008,-0.017,-0.014,0.984,34.69,-633.00,-713.00,-882.00
1.779,1.763,-0.168,-0.011,-0.009,0.984,34.69,-623.00,-716.00,-875.00
1.672,1.733,0.084,-0.011,-0.005,0.984,34.46,-641.00,-723.00,-887.00
1.756,1.481,-0.229,-0.015,-0.008,0.982,34.74,-615.00,-706.00,-867.00
1.626,1.344,-0.397,-0.011,-0.009,0.980,34.46,-638.00,-721.00,-887.00
1.641,1.656,-0.183,-0.018,-0.009,0.982,34.46,-645.00,-723.00,-880.00
1.550,1.252,-0.015,-0.015,-0.009,0.987,34.46,-628.00,-713.00,-882.00
1.595,1.359,-0.084,-0.017,-0.011,0.986,34.46,-636.00,-736.00,-887.00
1.916,1.443,-0.344,-0.013,-0.012,0.981,34.69,-623.00,-716.00,-875.00
1.649,1.557,-0.466,-0.012,-0.010,0.983,34.18,-645.00,-713.00,-882.00
1.595,1.275,-0.275,-0.014,-0.006,0.982,34.69,-628.00,-726.00,-877.00
1.573,1.405,-0.267,-0.011,-0.011,0.983,34.46,-636.00,-723.00,-880.00
1.435,1.473,-0.504,-0.016,-0.012,0.989,34.51,-631.00,-728.00,-897.00
1.595,1.603,-0.115,-0.019,-0.012,0.988,34.37,-626.00,-726.00,-875.00
1.718,1.290,-0.344,-0.013,-0.012,0.982,34.55,-633.00,-723.00,-875.00
1.489,1.427,-0.244,-0.015,-0.013,0.985,34.37,-643.00,-713.00,-887.00
1.580,1.290,-0.344,-0.015,-0.011,0.980,34.37,-636.00,-721.00,-870.00
1.580,1.115,0.061,-0.012,-0.013,0.989,34.46,-628.00,-731.00,-882.00
1.573,1.443,-0.237,-0.015,-0.009,0.983,34.32,-631.00,-716.00,-882.00
1.550,1.229,-0.137,-0.014,-0.009,0.979,34.37,-631.00,-718.00,-875.00
1.786,1.519,-0.573,-0.015,-0.007,0.983,34.13,-631.00,-706.00,-885.00
1.519,1.542,-0.008,-0.015,-0.012,0.979,34.32,-636.00,-731.00,-885.00
1.382,1.244,-0.344,-0.018,-0.007,0.983,33.99,-643.00,-721.00,-887.00
1.725,1.511,-0.290,-0.020,-0.008,0.989,34.22,-643.00,-721.00,-890.00
1.641,1.260,-0.046,-0.016,-0.009,0.986,33.94,-636.00,-716.00,-872.00
1.626,1.359,-0.366,-0.013,-0.010,0.979,34.13,-638.00,-713.00,-870.00
1.702,1.466,-0.176,-0.018,-0.014,0.978,34.18,-638.00,-726.00,-882.00
1.504,1.420,-0.321,-0.016,-0.009,0.987,33.85,-631.00,-708.00,-880.00
1.748,1.092,-0.198,-0.017,-0.010,0.981,33.94,-636.00,-718.00,-880.00
1.733,1.366,-0.145,-0.007,-0.012,0.977,34.18,-641.00,-726.00,-887.00
1.527,1.580,-0.153,-0.013,-0.013,0.977,33.85,-645.00,-723.00,-887.00
1.740,1.473,0.031,-0.011,-0.007,0.985,33.85,-645.00,-716.00,-880.00
1.687,1.473,0.160,-0.012,-0.009,0.983,34.04,-641.00,-716.00,-885.00
1.733,1.359,0.046,-0.016,-0.012,0.980,33.94,-638.00,-713.00,-882.00
1.679,1.458,-0.115,-0.017,-0.010,0.982,33.71,-636.00,-713.00,-887.00
1.534,1.466,-0.191,-0.017,-0.014,0.978,33.94,-631.00,-716.00,-880.00
1.939,1.634,-0.107,-0.018,-0.011,0.981,33.85,-621.00,-723.00,-877.00
1.626,1.260,-0.115,-0.015,-0.010,0.981,34.04,-641.00,-726.00,-882.00
1.641,1.450,-0.153,-0.014,-0.011,0.978,33.99,-633.00,-713.00,-882.00
1.779,1.557,-0.137,-0.012,-0.010,0.977,33.80,-628.00,-718.00,-875.00
1.664,1.359,-0.214,-0.016,-0.010,0.984,33.85,-631.00,-740.00,-880.00
1.557,1.534,0.092,-0.017,-0.007,0.983,33.71,-638.00,-726.00,-887.00
1.595,1.427,-0.214,-0.014,-0.009,0.979,33.80,-628.00,-728.00,-875.00
1.817,1.473,-0.122,-0.015,-0.011,0.979,33.71,-633.00,-711.00,-885.00
1.405,1.435,-0.061,-0.014,-0.011,0.986,33.52,-641.00,-718.00,-885.00
1.550,1.542,-0.290,-0.016,-0.008,0.982,33.52,-641.00,-728.00,-880.00
1.824,1.351,-0.015,-0.011,-0.009,0.987,33.61,-638.00,-718.00,-895.00
1.893,1.260,-0.137,-0.013,-0.006,0.979,33.94,-638.00,-711.00,-895.00
1.573,1.137,-0.069,-0.013,-0.008,0.978,33.66,-631.00,-711.00,-887.00
1.702,1.573,-0.267,-0.015,-0.007,0.983,33.85,-641.00,-728.00,-885.00
1.916,1.313,-0.160,-0.015,-0.009,0.984,33.47,-647.00,-731.00,-877.00
1.420,1.359,-0.206,-0.017,-0.010,0.982,33.52,-636.00,-726.00,-887.00
1.702,1.519,-0.313,-0.013,-0.007,0.984,33.47,-636.00,-726.00,-877.00
1.405,1.481,-0.198,-0.018,-0.013,0.979,33.61,-638.00,-726.00,-882.00
1.687,1.405,-0.160,-0.018,-0.010,0.984,33.61,-638.00,-726.00,-890.00
1.519,1.305,-0.023,-0.015,-0.012,0.984,33.47,-643.00,-718.00,-887.00
1.443,1.626,-0.115,-0.011,-0.011,0.985,33.52,-633.00,-718.00,-882.00
1.656,1.305,-0.229,-0.017,-0.010,0.985,33.47,-645.00,-718.00,-880.00
1.878,1.229,-0.176,-0.014,-0.010,0.987,33.47,-623.00,-726.00,-885.00
1.511,1.603,-0.275,-0.009,-0.007,0.977,33.52,-636.00,-701.00,-887.00
1.733,1.244,-0.183,-0.016,-0.011,0.985,33.28,-643.00,-718.00,-885.00
1.679,1.176,-0.198,-0.017,-0.009,0.984,33.33,-641.00,-723.00,-870.00
1.763,1.603,-0.145,-0.011,-0.011,0.975,33.52,-631.00,-721.00,-870.00
1.634,1.573,-0.023,-0.010,-0.015,0.977,33.28,-628.00,-718.00,-872.00
1.908,1.435,-0.366,-0.011,-0.012,0.981,33.33,-643.00,-718.00,-890.00
1.832,1.389,-0.450,-0.010,-0.007,0.986,33.47,-647.00,-726.00,-887.00
1.748,1.389,-0.321,-0.015,-0.011,0.987,33.33,-652.00,-721.00,-902.00
1.847,1.374,0.023,-0.012,-0.016,0.978,33.09,-636.00,-713.00,-872.00
1.611,1.649,-0.237,-0.012,-0.009,0.981,33.28,-641.00,-721.00,-892.00
1.687,1.634,-0.023,-0.012,-0.011,0.982,33.00,-638.00,-723.00,-882.00
1.626,1.557,-0.206,-0.012,-0.010,0.977,33.14,-638.00,-723.00,-907.00
1.473,1.565,-0.282,-0.013,-0.012,0.983,33.14,-641.00,-716.00,-885.00
1.763,1.504,-0.046,-0.010,-0.010,0.982,33.14,-636.00,-723.00,-895.00
1.550,1.473,-0.282,-0.010,-0.012,0.982,33.14,-638.00,-716.00,-887.00
1.695,1.603,-0.305,-0.014,-0.010,0.981,33.28,-645.00,-713.00,-880.00
1.710,1.511,-0.115,-0.010,-0.008,0.978,32.91,-623.00,-713.00,-892.00
1.420,1.634,-0.191,-0.011,-0.010,0.980,33.09,-631.00,-716.00,-887.00
1.634,1.573,-0.061,-0.013,-0.010,0.979,33.09,-641.00,-728.00,-887.00
1.473,1.450,-0.229,-0.012,-0.010,0.982,32.95,-633.00,-716.00,-872.00
1.725,1.481,0.092,-0.015,-0.010,0.978,33.09,-636.00,-728.00,-885.00
1.832,1.580,-0.237,-0.012,-0.009,0.979,33.14,-631.00,-716.00,-882.00
1.527,1.374,-0.321,-0.014,-0.014,0.977,32.81,-641.00,-723.00,-885.00
1.817,1.649,-0.313,-0.015,-0.009,0.982,32.95,-623.00,-713.00,-900.00
1.664,1.473,-0.046,-0.010,-0.009,0.981,32.91,-636.00,-716.00,-885.00
1.458,1.817,-0.176,-0.014,-0.009,0.982,32.91,-641.00,-728.00,-895.00
1.664,1.458,-0.298,-0.013,-0.010,0.977,32.95,-626.00,-718.00,-885.00
1.649,1.611,-0.427,-0.015,-0.010,0.985,32.91,-636.00,-716.00,-887.00
1.748,1.450,-0.168,-0.011,-0.015,0.978,32.77,-643.00,-728.00,-877.00
1.542,1.664,-0.260,-0.018,-0.007,0.983,33.00,-641.00,-726.00,-880.00
1.748,1.656,-0.107,-0.011,-0.010,0.978,32.81,-638.00,-713.00,-892.00
1.618,1.618,-0.328,-0.010,-0.011,0.985,32.62,-633.00,-718.00,-887.00
1.786,1.542,-0.053,-0.011,-0.011,0.981,32.67,-652.00,-726.00,-877.00
1.969,1.435,-0.160,-0.014,-0.009,0.984,32.91,-641.00,-726.00,-882.00
1.595,1.634,-0.015,-0.012,-0.009,0.980,32.62,-638.00,-726.00,-885.00
1.382,1.580,-0.198,-0.011,-0.010,0.977,32.77,-636.00,-728.00,-892.00
1.763,1.573,-0.214,-0.012,-0.009,0.979,32.77,-643.00,-716.00,-890.00
1.740,1.649,-0.160,-0.010,-0.015,0.984,32.67,-638.00,-708.00,-892.00
1.725,1.397,-0.305,-0.011,-0.009,0.980,32.67,-641.00,-718.00,-892.00
1.771,1.290,-0.130,-0.010,-0.015,0.984,32.48,-662.00,-721.00,-885.00
1.664,1.305,-0.244,-0.013,-0.012,0.979,32.62,-633.00,-718.00,-895.00
1.580,1.450,-0.359,-0.011,-0.012,0.979,32.58,-638.00,-713.00,-895.00
1.870,1.351,0.000,-0.014,-0.013,0.979,32.44,-623.00,-711.00,-880.00
1.550,1.534,-0.305,-0.013,-0.011,0.983,32.67,-638.00,-716.00,-877.00
1.481,1.359,-0.038,-0.016,-0.012,0.978,32.58,-631.00,-723.00,-880.00
1.588,1.779,-0.176,-0.009,-0.011,0.979,32.77,-633.00,-718.00,-885.00
1.733,1.344,-0.260,-0.014,-0.012,0.980,32.48,-645.00,-726.00,-895.00
1.817,1.656,-0.237,-0.013,-0.010,0.977,32.44,-636.00,-733.00,-892.00
1.885,1.420,-0.641,-0.014,-0.013,0.977,32.62,-643.00,-711.00,-882.00
1.756,1.458,-0.260,-0.011,-0.012,0.980,32.39,-626.00,-718.00,-890.00
1.794,1.504,0.038,-0.011,-0.009,0.980,32.67,-636.00,-721.00,-897.00
1.702,1.435,-0.458,-0.011,-0.009,0.978,32.48,-645.00,-726.00,-900.00
1.489,1.550,-0.160,-0.011,-0.011,0.979,32.48,-638.00,-718.00,-885.00
1.573,1.496,-0.344,-0.013,-0.013,0.985,32.25,-652.00,-716.00,-895.00
1.771,1.458,-0.565,-0.011,-0.010,0.981,32.29,-645.00,-740.00,-892.00
1.908,1.496,-0.084,-0.012,-0.009,0.983,32.44,-641.00,-737.00,-882.00
1.389,1.443,-0.336,-0.010,-0.009,0.983,32.39,-628.00,-716.00,-892.00
1.725,1.443,-0.061,-0.011,-0.009,0.982,32.29,-643.00,-718.00,-890.00
1.992,1.435,0.084,-0.010,-0.013,0.983,32.15,-633.00,-718.00,-880.00
1.641,1.443,-0.397,-0.015,-0.010,0.979,32.11,-638.00,-731.00,-900.00
1.870,1.588,-0.244,-0.009,-0.011,0.978,32.06,-641.00,-733.00,-900.00
1.786,1.656,-0.214,-0.011,-0.010,0.983,32.11,-631.00,-716.00,-895.00
1.580,1.511,-0.214,-0.014,-0.009,0.982,32.29,-641.00,-718.00,-870.00
1.817,1.290,-0.534,-0.010,-0.013,0.982,32.29,-636.00,-716.00,-887.00
1.489,1.565,-0.305,-0.013,-0.010,0.981,32.11,-638.00,-726.00,-897.00
1.634,1.603,-0.107,-0.012,-0.009,0.983,32.06,-638.00,-716.00,-882.00
1.748,1.366,-0.168,-0.009,-0.006,0.983,32.11,-636.00,-723.00,-885.00
1.687,1.336,-0.198,-0.024,-0.009,0.984,31.92,-647.00,-721.00,-900.00
1.527,1.473,-0.145,-0.013,-0.010,0.982,32.11,-623.00,-726.00,-892.00
1.817,1.435,-0.122,-0.013,-0.011,0.971,32.11,-636.00,-721.00,-892.00
1.802,1.496,-0.282,-0.014,-0.010,0.977,32.25,-647.00,-733.00,-877.00
1.733,1.344,-0.160,-0.007,-0.010,0.977,31.87,-655.00,-736.00,-882.00
1.496,1.565,-0.389,-0.009,-0.013,0.976,32.06,-641.00,-726.00,-890.00
1.489,1.748,-0.191,-0.012,-0.012,0.982,32.11,-645.00,-736.00,-892.00
1.664,1.534,-0.229,-0.014,-0.008,0.976,31.97,-623.00,-721.00,-892.00
1.542,1.466,-0.137,-0.010,-0.008,0.972,31.97,-647.00,-723.00,-890.00
1.511,1.656,-0.313,-0.012,-0.012,0.980,32.11,-636.00,-733.00,-882.00
1.687,1.374,-0.244,-0.009,-0.011,0.982,32.06,-643.00,-733.00,-890.00
1.763,1.473,-0.176,-0.010,-0.008,0.977,32.06,-636.00,-716.00,-887.00
1.779,1.656,-0.290,-0.008,-0.014,0.978,31.87,-643.00,-723.00,-887.00
1.725,1.481,-0.252,-0.013,-0.007,0.977,31.87,-638.00,-728.00,-882.00
1.824,1.458,-0.183,-0.010,-0.013,0.981,31.92,-633.00,-726.00,-900.00
1.740,1.504,-0.328,-0.013,-0.010,0.974,31.78,-643.00,-726.00,-882.00
1.718,1.641,-0.153,-0.008,-0.011,0.977,31.87,-641.00,-723.00,-892.00
1.664,1.740,0.145,-0.010,-0.009,0.982,31.78,-643.00,-726.00,-880.00
1.794,1.519,-0.344,-0.008,-0.010,0.986,31.54,-652.00,-731.00,-890.00
1.687,1.336,-0.153,-0.012,-0.011,0.973,31.73,-645.00,-721.00,-895.00
1.771,1.519,-0.244,-0.003,-0.008,0.974,31.64,-633.00,-713.00,-882.00
1.832,1.435,-0.046,-0.021,-0.010,0.984,31.78,-636.00,-733.00,-890.00
1.634,1.427,-0.244,-0.008,-0.011,0.978,31.87,-621.00,-723.00,-865.00
1.733,1.473,-0.336,-0.008,-0.010,0.979,31.64,-643.00,-728.00,-895.00
1.649,1.573,-0.076,-0.017,-0.010,0.973,31.64,-645.00,-731.00,-887.00
1.748,1.580,-0.252,-0.011,-0.010,0.979,31.78,-643.00,-728.00,-882.00
1.725,1.466,0.008,-0.011,-0.010,0.979,31.59,-636.00,-723.00,-885.00
1.580,1.924,-0.252,-0.013,-0.013,0.978,31.87,-657.00,-736.00,-890.00
1.527,1.511,-0.282,-0.011,-0.012,0.975,31.64,-641.00,-731.00,-905.00
1.626,1.267,-0.382,-0.010,-0.007,0.977,31.54,-643.00,-733.00,-880.00
1.496,1.412,-0.061,-0.012,-0.013,0.981,31.45,-643.00,-718.00,-882.00
1.649,1.679,-0.321,-0.010,-0.012,0.978,31.54,-643.00,-726.00,-887.00
1.786,1.611,-0.244,-0.010,-0.012,0.977,31.54,-655.00,-731.00,-900.00
1.748,1.313,-0.298,-0.009,-0.009,0.978,31.45,-636.00,-721.00,-890.00
1.718,1.557,-0.015,-0.014,-0.014,0.980,31.54,-645.00,-723.00,-882.00
1.466,1.435,-0.076,-0.013,-0.011,0.979,31.54,-638.00,-721.00,-872.00
1.718,1.397,-0.321,-0.010,-0.013,0.982,31.54,-645.00,-726.00,-887.00
2.031,1.473,-0.076,-0.010,-0.011,0.972,31.59,-641.00,-716.00,-900.00
1.725,1.580,-0.252,-0.013,-0.011,0.978,31.45,-643.00,-733.00,-882.00
1.870,1.237,-0.084,-0.011,-0.012,0.974,31.54,-645.00,-723.00,-877.00
1.679,1.359,-0.076,-0.005,-0.009,0.974,31.54,-631.00,-721.00,-895.00
1.611,1.534,0.130,-0.006,-0.008,0.973,31.45,-641.00,-728.00,-875.00
1.763,1.191,-0.069,-0.009,-0.012,0.972,31.54,-643.00,-733.00,-882.00
1.702,1.573,-0.198,-0.009,-0.010,0.973,31.40,-657.00,-731.00,-900.00
1.824,1.557,-0.115,-0.009,-0.010,0.975,31.21,-645.00,-733.00,-895.00
1.794,1.504,-0.031,-0.011,-0.010,0.980,31.26,-636.00,-721.00,-892.00
1.771,1.435,-0.290,-0.006,-0.009,0.978,31.26,-643.00,-731.00,-895.00
1.565,1.710,-0.321,-0.010,-0.012,0.977,31.26,-638.00,-733.00,-892.00
1.878,1.634,0.145,-0.010,-0.014,0.979,31.07,-645.00,-731.00,-890.00
1.435,1.351,-0.107,-0.010,-0.008,0.979,31.21,-638.00,-721.00,-907.00
1.718,1.779,-0.160,-0.012,-0.011,0.977,31.07,-645.00,-731.00,-890.00
1.809,1.473,-0.267,-0.010,-0.011,0.976,31.21,-643.00,-728.00,-887.00
1.733,1.481,-0.061,-0.008,-0.010,0.986,30.93,-643.00,-726.00,-875.00
1.588,1.672,-0.076,-0.005,-0.010,0.980,31.07,-626.00,-733.00,-890.00
1.794,1.527,-0.282,-0.007,-0.011,0.970,31.12,-645.00,-726.00,-895.00
1.756,1.542,-0.115,-0.009,-0.012,0.977,31.07,-643.00,-726.00,-907.00
1.626,1.511,-0.405,-0.010,-0.010,0.978,31.07,-645.00,-726.00,-890.00
1.481,1.305,-0.069,-0.012,-0.010,0.984,31.12,-638.00,-728.00,-882.00
1.878,1.450,-0.107,-0.012,-0.009,0.975,31.35,-647.00,-726.00,-897.00
2.031,1.405,-0.344,-0.016,-0.008,0.977,30.93,-638.00,-726.00,-892.00
1.809,1.305,-0.092,-0.009,-0.012,0.973,30.88,-636.00,-716.00,-885.00
1.542,1.244,-0.458,-0.010,-0.012,0.977,30.93,-650.00,-731.00,-905.00
1.763,1.443,-0.237,-0.008,-0.005,0.975,30.93,-647.00,-731.00,-885.00
1.733,1.191,-0.107,-0.010,-0.010,0.981,30.93,-657.00,-723.00,-890.00
1.695,1.489,-0.145,-0.010,-0.011,0.977,31.02,-638.00,-731.00,-895.00
1.519,1.679,-0.038,-0.010,-0.014,0.979,31.07,-638.00,-728.00,-887.00
1.878,1.366,-0.160,-0.009,-0.012,0.978,30.93,-636.00,-726.00,-887.00
1.664,1.313,-0.328,-0.011,-0.011,0.981,31.07,-650.00,-721.00,-897.00
1.740,1.664,-0.282,-0.007,-0.008,0.978,30.93,-628.00,-736.00,-895.00
1.618,1.420,-0.115,-0.008,-0.010,0.973,31.07,-652.00,-728.00,-887.00
1.817,1.550,-0.176,-0.010,-0.008,0.978,31.02,-631.00,-721.00,-885.00
1.511,1.244,-0.351,-0.008,-0.013,0.977,30.69,-626.00,-736.00,-890.00
1.725,1.267,-0.061,-0.008,-0.011,0.978,30.84,-638.00,-726.00,-897.00
1.687,1.664,-0.198,-0.011,-0.010,0.974,30.88,-647.00,-731.00,-892.00
1.397,1.725,-0.183,-0.013,-0.007,0.982,30.74,-628.00,-721.00,-887.00
1.710,1.679,-0.282,-0.010,-0.011,0.974,30.69,-641.00,-728.00,-905.00
1.740,1.366,-0.382,-0.015,-0.007,0.979,30.69,-638.00,-736.00,-890.00
1.672,1.305,-0.206,-0.014,-0.008,0.982,30.51,-645.00,-728.00,-890.00
1.756,1.748,-0.183,-0.013,-0.012,0.978,30.93,-643.00,-728.00,-897.00
1.511,1.557,-0.015,-0.014,-0.013,0.976,30.84,-652.00,-731.00,-900.00
1.740,1.351,-0.069,-0.012,-0.008,0.977,30.84,-641.00,-731.00,-895.00
1.687,1.573,-0.344,-0.012,-0.014,0.970,30.84,-641.00,-723.00,-905.00
1.840,1.611,0.046,-0.008,-0.014,0.977,30.32,-643.00,-718.00,-890.00
1.489,1.672,-0.206,-0.007,-0.008,0.968,30.51,-633.00,-728.00,-872.00
1.634,1.405,-0.183,-0.011,-0.008,0.976,30.60,-645.00,-745.00,-892.00
1.649,1.267,-0.198,-0.009,-0.010,0.982,30.55,-636.00,-721.00,-892.00
1.611,1.214,-0.069,-0.015,-0.013,0.985,30.55,-652.00,-723.00,-885.00
1.718,1.603,-0.160,-0.013,-0.012,0.973,30.51,-638.00,-718.00,-887.00
1.695,1.481,-0.221,-0.013,-0.013,0.976,30.60,-650.00,-728.00,-890.00
1.924,1.496,-0.084,-0.010,-0.009,0.976,30.74,-643.00,-728.00,-892.00
1.672,1.260,-0.282,-0.015,-0.008,0.984,30.41,-641.00,-728.00,-907.00
1.672,1.756,-0.191,-0.011,-0.011,0.977,30.55,-636.00,-731.00,-892.00
1.939,1.481,-0.389,-0.009,-0.009,0.976,30.74,-641.00,-731.00,-900.00
1.580,1.405,-0.160,-0.009,-0.012,0.973,30.55,-647.00,-736.00,-900.00
1.710,1.298,-0.290,-0.007,-0.012,0.973,30.55,-638.00,-750.00,-882.00
1.763,1.664,-0.176,-0.009,-0.005,0.976,30.37,-631.00,-728.00,-892.00
1.817,1.580,-0.229,-0.009,-0.012,0.976,30.41,-636.00,-731.00,-900.00
1.573,1.466,-0.336,-0.006,-0.010,0.973,30.51,-643.00,-713.00,-895.00
1.847,1.664,0.008,-0.011,-0.011,0.980,30.37,-626.00,-733.00,-902.00
1.664,1.336,-0.267,-0.009,-0.009,0.978,30.51,-633.00,-721.00,-902.00
1.725,1.595,-0.282,-0.010,-0.010,0.976,30.41,-652.00,-728.00,-897.00
1.756,1.550,-0.389,-0.012,-0.013,0.979,30.37,-641.00,-728.00,-887.00
1.641,1.840,-0.359,-0.009,-0.015,0.982,30.18,-652.00,-726.00,-895.00
1.878,1.664,-0.008,-0.008,-0.010,0.982,30.37,-647.00,-733.00,-892.00
1.733,1.458,-0.344,-0.010,-0.011,0.980,30.51,-647.00,-737.00,-897.00
1.511,1.290,-0.107,-0.009,-0.012,0.982,30.55,-645.00,-723.00,-902.00
1.641,1.542,-0.191,-0.009,-0.011,0.973,29.99,-641.00,-723.00,-885.00
1.595,1.595,-0.336,-0.010,-0.010,0.978,30.18,-650.00,-731.00,-895.00
1.794,1.466,-0.321,-0.009,-0.011,0.974,30.37,-643.00,-740.00,-897.00
1.634,1.740,-0.275,-0.011,-0.007,0.979,30.32,-631.00,-728.00,-887.00
1.885,1.725,-0.046,-0.009,-0.011,0.979,30.22,-650.00,-728.00,-892.00
1.550,1.397,-0.061,-0.005,-0.011,0.972,30.22,-633.00,-721.00,-897.00
1.763,1.450,-0.366,-0.013,-0.014,0.976,30.32,-647.00,-736.00,-892.00
1.916,1.374,-0.122,-0.010,-0.008,0.973,30.22,-647.00,-731.00,-902.00
1.641,1.382,-0.160,-0.011,-0.010,0.979,30.22,-641.00,-728.00,-892.00
1.786,1.527,-0.206,-0.008,-0.011,0.972,30.22,-650.00,-733.00,-905.00
1.710,1.336,-0.198,-0.010,-0.010,0.973,29.99,-652.00,-737.00,-910.00
1.687,1.634,-0.115,-0.013,-0.014,0.973,29.99,-652.00,-726.00,-892.00
1.603,1.435,-0.107,-0.006,-0.011,0.975,29.99,-643.00,-737.00,-905.00
1.733,1.771,-0.351,-0.007,-0.011,0.979,30.08,-643.00,-728.00,-895.00
1.618,1.336,-0.183,-0.012,-0.006,0.975,29.89,-645.00,-733.00,-905.00
1.771,1.473,-0.153,-0.010,-0.010,0.970,29.99,-638.00,-736.00,-902.00
1.748,1.473,-0.137,-0.007,-0.010,0.978,29.89,-638.00,-733.00,-885.00
1.725,1.466,-0.237,-0.008,-0.014,0.970,29.85,-643.00,-731.00,-900.00
1.473,1.389,-0.267,-0.010,-0.013,0.976,30.08,-633.00,-726.00,-877.00
1.603,1.740,-0.229,-0.012,-0.010,0.979,29.89,-655.00,-733.00,-892.00
1.908,1.504,-0.137,-0.013,-0.011,0.972,29.89,-645.00,-733.00,-887.00
1.672,1.672,-0.275,-0.013,-0.013,0.972,29.80,-641.00,-728.00,-895.00
1.710,1.611,-0.328,-0.011,-0.012,0.975,29.85,-643.00,-742.00,-890.00
1.656,1.718,-0.153,-0.006,-0.012,0.974,29.99,-638.00,-737.00,-885.00
1.695,1.710,-0.198,-0.010,-0.010,0.976,29.80,-638.00,-740.00,-895.00
1.740,1.435,-0.160,-0.007,-0.011,0.979,29.85,-652.00,-742.00,-885.00
1.924,1.519,-0.061,-0.011,-0.012,0.975,29.80,-643.00,-718.00,-892.00
1.885,1.809,-0.153,-0.007,-0.011,0.973,29.99,-638.00,-728.00,-880.00
1.924,1.382,0.023,-0.007,-0.013,0.971,29.99,-643.00,-737.00,-900.00
1.611,1.511,-0.328,-0.011,-0.011,0.973,29.85,-643.00,-737.00,-902.00
1.779,1.450,-0.237,-0.007,-0.011,0.972,29.85,-647.00,-737.00,-905.00
1.687,1.519,-0.214,-0.010,-0.012,0.974,29.80,-643.00,-736.00,-897.00
1.618,1.595,-0.260,-0.008,-0.010,0.979,29.71,-638.00,-733.00,-895.00
1.718,1.389,-0.229,-0.010,-0.011,0.978,29.89,-641.00,-726.00,-905.00
1.733,1.580,-0.145,-0.011,-0.009,0.971,29.71,-626.00,-733.00,-895.00
1.939,1.473,-0.137,-0.010,-0.010,0.973,29.85,-636.00,-733.00,-892.00
1.756,1.504,-0.191,-0.006,-0.011,0.970,29.52,-657.00,-736.00,-900.00
1.695,1.771,-0.290,-0.008,-0.013,0.970,29.66,-645.00,-718.00,-900.00
1.832,1.420,-0.076,-0.012,-0.013,0.975,29.57,-647.00,-740.00,-900.00
1.641,1.435,-0.389,-0.009,-0.010,0.976,29.71,-660.00,-736.00,-910.00
1.885,1.435,-0.076,-0.010,-0.012,0.981,29.47,-647.00,-728.00,-907.00
1.733,1.443,-0.382,-0.010,-0.014,0.973,29.66,-638.00,-731.00,-905.00
1.496,1.397,-0.420,-0.009,-0.009,0.973,29.57,-641.00,-728.00,-897.00
1.718,1.550,-0.221,-0.007,-0.011,0.974,29.57,-647.00,-733.00,-892.00
1.817,1.550,-0.336,-0.009,-0.012,0.976,29.57,-655.00,-737.00,-897.00
1.466,1.519,-0.641,-0.013,-0.016,0.975,29.71,-645.00,-736.00,-895.00
1.641,1.618,-0.198,-0.006,-0.012,0.969,29.71,-641.00,-742.00,-890.00
1.977,1.664,-0.244,-0.010,-0.010,0.973,29.38,-641.00,-740.00,-907.00
1.565,1.359,-0.313,-0.009,-0.010,0.974,29.52,-641.00,-737.00,-897.00
2.122,1.710,-0.221,-0.013,-0.009,0.975,29.52,-633.00,-737.00,-915.00
1.771,1.473,-0.382,-0.008,-0.006,0.969,29.19,-638.00,-737.00,-900.00
1.824,1.802,-0.053,-0.009,-0.011,0.980,29.28,-647.00,-733.00,-900.00
1.511,1.550,-0.130,-0.007,-0.010,0.969,29.52,-650.00,-731.00,-892.00
1.641,1.366,-0.336,-0.009,-0.011,0.979,29.52,-633.00,-728.00,-900.00
1.802,1.832,-0.443,-0.011,-0.012,0.977,29.38,-650.00,-736.00,-902.00
1.656,1.542,-0.229,-0.011,-0.010,0.974,29.19,-647.00,-733.00,-902.00
1.679,1.603,-0.076,-0.010,-0.015,0.969,29.57,-643.00,-731.00,-900.00
1.908,1.504,-0.084,-0.008,-0.009,0.972,29.28,-641.00,-721.00,-900.00
1.786,1.565,-0.145,-0.010,-0.010,0.967,29.28,-652.00,-736.00,-895.00
1.634,1.611,-0.183,-0.010,-0.013,0.972,29.57,-633.00,-728.00,-895.00
1.534,1.672,-0.328,-0.007,-0.011,0.973,29.38,-641.00,-721.00,-885.00
1.771,1.344,0.061,-0.008,-0.009,0.972,29.00,-645.00,-745.00,-895.00
1.954,1.855,-0.153,-0.010,-0.013,0.977,29.28,-647.00,-733.00,-900.00
1.786,1.695,-0.099,-0.008,-0.012,0.975,29.28,-633.00,-716.00,-887.00
2.038,1.443,-0.359,-0.009,-0.012,0.971,29.05,-647.00,-733.00,-892.00
1.710,1.481,-0.267,-0.013,-0.013,0.977,29.28,-636.00,-737.00,-902.00
1.939,1.763,-0.298,-0.009,-0.010,0.971,29.33,-647.00,-726.00,-892.00
1.519,1.802,-0.267,-0.009,-0.010,0.975,29.38,-645.00,-745.00,-900.00
1.595,1.710,-0.252,-0.012,-0.009,0.976,29.14,-645.00,-736.00,-887.00
1.878,1.916,-0.160,-0.010,-0.010,0.978,29.14,-650.00,-742.00,-897.00
1.458,1.710,-0.260,-0.010,-0.008,0.971,29.28,-638.00,-742.00,-907.00
1.733,1.374,-0.115,-0.009,-0.013,0.968,28.95,-631.00,-736.00,-887.00
1.710,1.595,-0.237,-0.009,-0.014,0.976,29.14,-641.00,-740.00,-907.00
1.992,1.679,-0.160,-0.010,-0.009,0.976,29.14,-657.00,-733.00,-912.00
1.893,1.427,-0.191,-0.010,-0.011,0.971,29.05,-643.00,-731.00,-902.00
1.389,1.519,-0.099,-0.007,-0.007,0.975,29.00,-631.00,-728.00,-892.00
1.695,1.794,-0.412,-0.005,-0.011,0.971,29.19,-645.00,-736.00,-905.00
1.603,1.687,-0.076,-0.007,-0.012,0.978,29.00,-641.00,-733.00,-885.00
1.870,1.580,-0.427,-0.010,-0.008,0.968,29.33,-643.00,-721.00,-900.00
1.695,1.183,-0.252,-0.011,-0.009,0.972,29.00,-650.00,-733.00,-902.00
1.756,1.496,0.000,-0.007,-0.011,0.975,28.95,-645.00,-736.00,-897.00
1.863,1.641,-0.458,-0.011,-0.008,0.971,28.81,-652.00,-737.00,-905.00
1.893,1.672,-0.191,-0.011,-0.012,0.968,29.00,-650.00,-731.00,-885.00
1.786,1.634,-0.244,-0.009,-0.009,0.977,29.00,-655.00,-733.00,-912.00
1.672,1.672,-0.351,-0.008,-0.009,0.978,29.14,-650.00,-736.00,-902.00
1.817,1.214,-0.084,-0.007,-0.013,0.972,29.14,-650.00,-752.00,-900.00
1.664,1.672,-0.038,-0.012,-0.008,0.973,29.00,-645.00,-736.00,-905.00
1.779,1.695,-0.321,-0.005,-0.008,0.972,28.86,-641.00,-742.00,-902.00
1.847,1.565,-0.260,-0.008,-0.006,0.977,29.00,-638.00,-736.00,-895.00
1.634,1.481,-0.153,-0.009,-0.012,0.969,29.00,-638.00,-736.00,-907.00
1.611,1.481,-0.099,-0.009,-0.012,0.968,28.86,-650.00,-736.00,-900.00
1.557,1.450,-0.489,-0.011,-0.009,0.969,28.77,-657.00,-737.00,-892.00
1.824,1.466,-0.351,-0.011,-0.010,0.969,28.86,-655.00,-742.00,-902.00
1.733,1.573,-0.267,-0.008,-0.010,0.975,29.00,-643.00,-737.00,-897.00
1.649,1.794,-0.221,-0.008,-0.009,0.974,28.77,-645.00,-745.00,-890.00
1.565,1.405,-0.458,-0.008,-0.012,0.969,29.00,-647.00,-740.00,-902.00
1.687,1.557,-0.397,-0.010,-0.009,0.976,29.00,-652.00,-752.00,-902.00
1.916,1.817,-0.107,-0.006,-0.010,0.975,28.77,-652.00,-740.00,-902.00
1.863,1.718,-0.176,-0.008,-0.010,0.969,28.77,-655.00,-737.00,-887.00
1.931,1.489,-0.137,-0.010,-0.012,0.973,28.81,-647.00,-721.00,-905.00
1.702,1.618,-0.191,-0.008,-0.012,0.978,28.86,-645.00,-728.00,-897.00
1.763,1.618,-0.099,-0.006,-0.013,0.973,28.62,-650.00,-736.00,-890.00
1.710,1.382,-0.176,-0.006,-0.014,0.970,28.95,-662.00,-745.00,-887.00
1.847,1.702,-0.221,-0.005,-0.011,0.971,28.86,-645.00,-740.00,-902.00
1.824,1.588,-0.061,-0.007,-0.005,0.971,28.81,-633.00,-728.00,-907.00
1.901,1.611,-0.229,-0.008,-0.010,0.971,28.53,-652.00,-726.00,-872.00
1.588,1.702,-0.229,-0.006,-0.014,0.966,28.77,-650.00,-736.00,-900.00
1.840,1.611,-0.351,-0.007,-0.011,0.969,28.62,-641.00,-728.00,-880.00
1.954,1.550,-0.229,-0.007,-0.012,0.971,28.67,-650.00,-745.00,-890.00
2.053,1.626,-0.198,-0.008,-0.012,0.969,28.53,-650.00,-737.00,-897.00
1.870,1.511,-0.229,-0.006,-0.012,0.972,28.62,-645.00,-742.00,-907.00
1.771,1.656,-0.244,-0.004,-0.012,0.973,28.48,-641.00,-737.00,-902.00
2.023,1.473,-0.214,-0.012,-0.013,0.979,28.48,-650.00,-740.00,-905.00
2.031,1.695,-0.023,-0.008,-0.012,0.975,28.62,-650.00,-742.00,-905.00
1.977,1.557,-0.168,-0.009,-0.014,0.971,28.67,-647.00,-736.00,-900.00
1.878,1.550,-0.061,-0.007,-0.010,0.972,28.48,-643.00,-740.00,-900.00
1.985,1.626,-0.137,-0.007,-0.005,0.975,28.44,-647.00,-726.00,-895.00
1.725,1.885,-0.260,-0.008,-0.008,0.968,28.77,-660.00,-737.00,-907.00
1.901,1.840,-0.160,-0.013,-0.011,0.969,28.48,-655.00,-737.00,-902.00
1.985,1.641,-0.061,-0.007,-0.013,0.974,28.62,-641.00,-726.00,-897.00
1.794,1.542,-0.229,-0.009,-0.014,0.976,28.48,-641.00,-733.00,-892.00
1.794,1.389,-0.290,-0.007,-0.012,0.972,28.48,-638.00,-733.00,-907.00
1.954,1.405,-0.076,-0.006,-0.009,0.971,28.48,-643.00,-718.00,-912.00
1.748,1.626,-0.267,-0.007,-0.008,0.973,28.44,-655.00,-737.00,-897.00
1.710,1.588,-0.389,-0.006,-0.011,0.967,28.25,-667.00,-733.00,-895.00
1.756,1.634,-0.145,-0.013,-0.009,0.970,28.25,-657.00,-737.00,-902.00
1.809,1.534,-0.160,-0.009,-0.010,0.972,28.62,-643.00,-740.00,-907.00
1.718,1.435,-0.351,-0.008,-0.012,0.981,28.01,-647.00,-742.00,-902.00
1.901,1.611,-0.008,-0.010,-0.011,0.973,28.44,-657.00,-726.00,-905.00
1.809,1.779,-0.214,-0.007,-0.009,0.969,28.34,-652.00,-736.00,-900.00
1.817,1.550,-0.183,-0.007,-0.012,0.971,28.44,-647.00,-742.00,-905.00
1.802,1.679,-0.244,-0.008,-0.014,0.969,28.34,-647.00,-737.00,-890.00
2.046,1.580,-0.336,-0.005,-0.008,0.975,28.29,-647.00,-737.00,-900.00
1.962,1.756,-0.427,-0.008,-0.011,0.968,28.34,-655.00,-736.00,-897.00
1.885,1.870,-0.351,-0.010,-0.014,0.973,28.29,-643.00,-733.00,-875.00
2.015,1.198,-0.420,-0.013,-0.009,0.976,28.15,-643.00,-740.00,-897.00
2.038,1.435,-0.275,-0.009,-0.008,0.976,28.34,-641.00,-736.00,-895.00
1.756,1.786,-0.015,-0.005,-0.010,0.970,28.15,-636.00,-742.00,-905.00
1.626,1.740,-0.389,-0.006,-0.011,0.975,28.15,-652.00,-733.00,-910.00
1.588,1.824,-0.084,-0.004,-0.015,0.973,28.15,-633.00,-742.00,-902.00
1.977,1.527,-0.191,-0.006,-0.007,0.969,28.29,-650.00,-728.00,-902.00
1.702,1.466,-0.153,-0.007,-0.010,0.973,28.25,-645.00,-736.00,-910.00
1.763,1.779,-0.489,-0.010,-0.007,0.974,28.15,-638.00,-723.00,-887.00
1.992,1.542,-0.099,-0.007,-0.013,0.972,28.25,-655.00,-747.00,-907.00
1.847,1.710,-0.099,-0.008,-0.011,0.969,28.25,-647.00,-723.00,-905.00
1.817,1.679,-0.061,-0.010,-0.012,0.974,28.15,-647.00,-747.00,-895.00
1.550,1.481,-0.427,-0.005,-0.008,0.977,28.01,-641.00,-737.00,-880.00
1.832,1.725,-0.031,-0.006,-0.010,0.974,28.11,-650.00,-747.00,-890.00
1.733,1.840,-0.053,-0.007,-0.013,0.974,27.92,-643.00,-731.00,-905.00
1.550,1.756,-0.252,-0.010,-0.012,0.968,28.01,-645.00,-726.00,-897.00
1.786,1.679,-0.046,-0.005,-0.011,0.969,27.78,-665.00,-747.00,-892.00
1.817,1.695,-0.221,-0.005,-0.007,0.969,28.29,-643.00,-737.00,-900.00
1.863,1.664,-0.153,-0.008,-0.012,0.969,28.15,-652.00,-747.00,-902.00
1.863,1.427,-0.076,-0.009,-0.012,0.971,28.11,-657.00,-733.00,-912.00
1.885,1.382,-0.061,-0.006,-0.010,0.973,27.59,-647.00,-721.00,-907.00
1.817,1.588,-0.160,-0.005,-0.010,0.977,27.92,-652.00,-737.00,-895.00
1.756,1.618,-0.015,-0.008,-0.010,0.968,28.15,-652.00,-731.00,-907.00
2.092,1.733,-0.244,-0.012,-0.011,0.973,27.82,-643.00,-742.00,-887.00
1.542,1.626,-0.244,-0.009,-0.009,0.971,27.92,-655.00,-737.00,-895.00
1.985,1.626,-0.183,-0.006,-0.008,0.975,27.78,-652.00,-740.00,-895.00
1.893,1.611,-0.038,-0.004,-0.012,0.966,28.01,-643.00,-737.00,-892.00
1.725,1.656,-0.427,-0.006,-0.006,0.969,27.92,-645.00,-740.00,-902.00
2.061,1.580,0.076,-0.007,-0.010,0.973,27.92,-641.00,-728.00,-912.00
1.870,1.450,0.008,-0.010,-0.006,0.974,27.78,-652.00,-737.00,-897.00
1.656,1.649,-0.069,-0.010,-0.014,0.970,28.11,-645.00,-731.00,-892.00
1.863,1.557,-0.084,-0.009,-0.014,0.972,27.78,-650.00,-740.00,-900.00
1.794,1.763,-0.282,-0.006,-0.013,0.974,27.78,-650.00,-733.00,-897.00
1.718,1.481,-0.290,-0.011,-0.009,0.973,27.92,-650.00,-726.00,-902.00
1.863,1.763,-0.374,-0.005,-0.012,0.974,27.92,-652.00,-737.00,-915.00
1.893,1.351,-0.252,-0.008,-0.011,0.973,27.40,-647.00,-737.00,-905.00
1.733,1.565,-0.046,-0.010,-0.013,0.978,27.73,-641.00,-745.00,-897.00
1.725,1.611,-0.076,-0.005,-0.011,0.971,27.73,-650.00,-745.00,-887.00
1.718,1.618,-0.053,-0.004,-0.015,0.969,27.78,-650.00,-736.00,-917.00
1.649,1.611,-0.351,-0.005,-0.011,0.973,27.59,-655.00,-733.00,-912.00
1.679,1.695,-0.168,-0.007,-0.014,0.970,27.78,-647.00,-745.00,-912.00
1.672,1.756,-0.122,-0.002,-0.008,0.966,27.49,-645.00,-731.00,-912.00
1.664,1.756,-0.160,-0.009,-0.009,0.972,27.45,-645.00,-733.00,-907.00
1.634,1.763,-0.069,-0.009,-0.008,0.973,27.64,-655.00,-740.00,-897.00
1.954,1.763,-0.061,-0.010,-0.009,0.970,27.64,-647.00,-747.00,-910.00
1.756,1.374,-0.321,-0.010,-0.013,0.974,27.59,-641.00,-731.00,-905.00
1.779,1.656,-0.313,-0.010,-0.010,0.969,27.78,-660.00,-737.00,-905.00
1.855,1.855,-0.122,-0.006,-0.013,0.973,27.64,-662.00,-723.00,-900.00
1.740,1.481,-0.130,-0.006,-0.009,0.972,27.59,-655.00,-740.00,-897.00
1.992,1.489,-0.153,-0.012,-0.012,0.970,27.64,-647.00,-745.00,-905.00
1.771,1.756,-0.252,-0.003,-0.011,0.969,27.59,-647.00,-736.00,-907.00
1.840,1.366,-0.153,-0.009,-0.014,0.969,27.59,-650.00,-731.00,-892.00
1.763,1.641,-0.221,-0.005,-0.015,0.967,27.45,-652.00,-728.00,-907.00
1.779,1.611,-0.427,-0.010,-0.010,0.972,27.64,-655.00,-718.00,-910.00
1.786,1.725,-0.275,-0.005,-0.011,0.974,27.59,-650.00,-742.00,-905.00
1.916,1.588,-0.160,-0.009,-0.011,0.971,27.64,-652.00,-737.00,-905.00
1.893,1.458,0.092,-0.003,-0.011,0.962,27.45,-645.00,-737.00,-907.00
1.962,1.824,-0.206,-0.011,-0.013,0.971,27.45,-665.00,-750.00,-897.00
1.725,1.595,-0.221,-0.007,-0.012,0.967,27.59,-655.00,-742.00,-895.00
1.832,1.718,-0.069,-0.005,-0.011,0.970,27.45,-650.00,-737.00,-900.00
1.649,1.603,-0.229,-0.006,-0.010,0.968,27.45,-638.00,-731.00,-890.00
1.992,1.878,-0.244,-0.002,-0.008,0.964,27.49,-647.00,-742.00,-905.00
1.832,1.733,-0.130,-0.006,-0.012,0.968,27.26,-645.00,-731.00,-902.00
1.893,1.481,-0.076,-0.010,-0.009,0.969,27.31,-650.00,-736.00,-907.00
1.908,1.595,-0.313,-0.006,-0.014,0.969,27.12,-647.00,-728.00,-902.00
1.969,1.328,-0.359,-0.009,-0.012,0.968,27.31,-647.00,-728.00,-900.00
1.824,1.817,-0.244,-0.009,-0.011,0.970,27.31,-655.00,-726.00,-902.00
1.893,1.573,-0.298,-0.006,-0.008,0.965,27.31,-662.00,-745.00,-907.00
1.718,1.702,-0.092,-0.006,-0.006,0.967,27.21,-660.00,-737.00,-912.00
1.985,1.443,-0.183,-0.005,-0.010,0.965,27.21,-638.00,-740.00,-902.00
1.550,1.710,-0.221,-0.003,-0.010,0.970,27.21,-647.00,-733.00,-897.00
1.641,1.542,-0.344,-0.010,-0.010,0.967,27.21,-641.00,-742.00,-902.00
1.847,1.595,-0.176,-0.007,-0.006,0.963,27.31,-647.00,-733.00,-895.00
1.931,1.748,-0.168,-0.006,-0.016,0.968,27.26,-655.00,-736.00,-902.00
1.603,1.664,-0.229,-0.004,-0.010,0.968,27.26,-643.00,-733.00,-895.00
2.137,1.511,-0.214,-0.004,-0.008,0.968,27.26,-638.00,-737.00,-905.00
1.809,1.542,-0.260,-0.007,-0.014,0.974,27.07,-660.00,-742.00,-900.00
1.794,1.603,-0.290,-0.006,-0.012,0.968,27.07,-652.00,-736.00,-900.00
1.985,1.588,-0.130,-0.006,-0.010,0.972,27.21,-641.00,-736.00,-897.00
1.687,1.557,-0.427,-0.006,-0.014,0.966,26.98,-652.00,-742.00,-897.00
1.847,1.573,-0.275,-0.012,-0.013,0.969,26.98,-647.00,-740.00,-900.00
1.710,1.748,-0.008,0.000,-0.009,0.968,27.07,-652.00,-742.00,-910.00
1.885,1.824,-0.061,-0.008,-0.013,0.966,26.98,-645.00,-733.00,-907.00
1.916,1.611,-0.237,-0.005,-0.014,0.976,26.98,-655.00,-742.00,-897.00
1.893,1.443,-0.099,-0.004,-0.010,0.971,27.21,-645.00,-740.00,-900.00
1.908,1.550,-0.168,-0.004,-0.010,0.970,27.07,-657.00,-733.00,-902.00
1.924,1.916,-0.382,-0.006,-0.009,0.966,26.88,-643.00,-733.00,-902.00
1.740,1.779,-0.084,-0.008,-0.010,0.975,26.88,-665.00,-736.00,-900.00
1.870,1.519,-0.290,-0.004,-0.012,0.965,26.98,-650.00,-740.00,-897.00
1.748,1.733,-0.115,-0.005,-0.014,0.972,27.12,-638.00,-736.00,-897.00
2.198,1.794,-0.420,-0.005,-0.014,0.966,26.98,-650.00,-755.00,-907.00
1.710,1.992,-0.229,-0.005,-0.010,0.963,26.79,-645.00,-731.00,-897.00
1.954,1.840,-0.313,-0.006,-0.009,0.967,26.79,-657.00,-736.00,-902.00
1.573,1.450,-0.221,-0.005,-0.015,0.971,26.69,-657.00,-742.00,-907.00
1.931,1.656,-0.229,-0.006,-0.011,0.969,27.07,-638.00,-750.00,-907.00
2.000,1.534,-0.336,-0.007,-0.011,0.969,26.98,-660.00,-731.00,-902.00
1.908,1.420,-0.168,-0.006,-0.012,0.972,26.93,-665.00,-747.00,-907.00
1.817,1.588,-0.183,-0.004,-0.015,0.972,26.98,-645.00,-731.00,-900.00
1.992,1.412,-0.145,-0.007,-0.010,0.972,26.79,-645.00,-740.00,-902.00
2.061,1.634,-0.122,-0.001,-0.013,0.966,26.98,-638.00,-742.00,-895.00
1.771,1.573,-0.168,-0.004,-0.014,0.967,26.93,-647.00,-733.00,-902.00
1.908,1.718,-0.069,-0.007,-0.011,0.965,26.74,-662.00,-728.00,-900.00
1.550,1.664,-0.031,-0.002,-0.010,0.965,26.88,-660.00,-733.00,-910.00
1.756,1.695,-0.099,-0.004,-0.011,0.968,26.79,-650.00,-737.00,-915.00
1.672,1.824,-0.168,-0.007,-0.010,0.972,26.69,-641.00,-731.00,-907.00
1.885,1.313,-0.092,-0.008,-0.011,0.966,26.69,-657.00,-740.00,-902.00
1.885,1.542,-0.191,-0.008,-0.010,0.967,26.79,-655.00,-747.00,-902.00
1.733,1.466,-0.221,-0.004,-0.011,0.971,26.60,-650.00,-737.00,-892.00
2.122,1.649,-0.336,-0.004,-0.016,0.964,26.79,-655.00,-745.00,-907.00
1.924,1.756,-0.237,-0.006,-0.015,0.973,26.69,-650.00,-745.00,-905.00
1.725,1.504,-0.046,-0.006,-0.011,0.968,26.74,-657.00,-747.00,-907.00
1.916,1.664,-0.214,-0.010,-0.010,0.968,26.79,-643.00,-736.00,-902.00
1.992,1.710,-0.015,-0.005,-0.009,0.970,26.60,-645.00,-736.00,-892.00
1.939,1.977,-0.313,-0.005,-0.012,0.971,26.74,-657.00,-731.00,-900.00
1.626,1.824,-0.214,-0.005,-0.010,0.967,26.60,-645.00,-733.00,-902.00
2.046,1.519,-0.221,-0.006,-0.012,0.970,26.69,-643.00,-740.00,-902.00
1.771,1.649,-0.160,-0.005,-0.012,0.968,26.46,-647.00,-737.00,-902.00
1.847,1.237,-0.008,-0.007,-0.013,0.969,26.60,-660.00,-742.00,-915.00
1.824,1.473,-0.267,-0.006,-0.009,0.970,26.69,-643.00,-747.00,-897.00
1.954,1.656,-0.252,-0.007,-0.015,0.965,26.79,-643.00,-757.00,-902.00
1.771,1.580,0.031,-0.004,-0.013,0.970,26.55,-643.00,-728.00,-917.00
1.992,1.832,-0.244,-0.005,-0.010,0.966,26.74,-652.00,-750.00,-927.00
2.130,1.565,-0.176,-0.008,-0.010,0.968,26.69,-643.00,-740.00,-895.00
1.733,1.527,0.053,-0.003,-0.013,0.970,26.37,-650.00,-736.00,-902.00
1.748,1.779,-0.176,-0.007,-0.011,0.965,26.60,-662.00,-731.00,-892.00
1.733,1.771,-0.191,-0.003,-0.013,0.971,26.60,-650.00,-740.00,-902.00
1.649,1.763,-0.313,-0.004,-0.015,0.966,26.18,-647.00,-750.00,-905.00
1.725,1.641,-0.183,-0.003,-0.009,0.971,26.55,-665.00,-745.00,-905.00
2.061,1.710,-0.214,-0.005,-0.012,0.974,26.55,-643.00,-740.00,-912.00
2.008,1.656,-0.244,-0.008,-0.012,0.971,26.41,-650.00,-737.00,-902.00
1.962,1.618,-0.061,-0.004,-0.007,0.966,26.37,-662.00,-745.00,-912.00
1.985,1.840,-0.084,-0.007,-0.012,0.964,26.41,-645.00,-742.00,-905.00
1.878,1.786,-0.107,-0.004,-0.010,0.969,26.55,-660.00,-750.00,-915.00
1.542,1.588,-0.107,-0.008,-0.013,0.969,26.41,-647.00,-755.00,-910.00
1.779,1.786,-0.275,-0.004,-0.012,0.964,26.41,-655.00,-737.00,-910.00
1.901,1.595,-0.244,-0.007,-0.006,0.969,26.37,-638.00,-737.00,-915.00
1.756,1.565,-0.092,-0.012,-0.013,0.971,26.37,-650.00,-737.00,-897.00
1.977,1.634,-0.351,-0.008,-0.010,0.966,26.37,-647.00,-752.00,-897.00
1.924,1.389,-0.015,-0.009,-0.012,0.973,26.22,-652.00,-745.00,-905.00
1.824,1.595,-0.069,-0.006,-0.013,0.965,26.37,-638.00,-740.00,-905.00
1.672,1.672,-0.206,-0.004,-0.010,0.967,26.37,-645.00,-742.00,-915.00
1.863,1.687,-0.382,-0.002,-0.013,0.969,26.37,-643.00,-733.00,-907.00
1.695,1.901,-0.237,-0.003,-0.011,0.965,26.22,-652.00,-745.00,-907.00
1.817,1.924,-0.145,-0.005,-0.012,0.968,26.41,-652.00,-747.00,-910.00
1.786,1.412,-0.321,-0.005,-0.011,0.972,26.37,-650.00,-742.00,-910.00
1.885,1.458,-0.107,-0.007,-0.012,0.964,26.37,-662.00,-745.00,-902.00
1.870,1.489,0.023,-0.009,-0.011,0.972,26.04,-650.00,-745.00,-910.00
2.092,1.565,-0.107,-0.004,-0.010,0.968,26.22,-643.00,-740.00,-905.00
1.641,1.359,-0.321,-0.004,-0.010,0.969,26.41,-652.00,-733.00,-910.00
1.863,1.725,-0.015,-0.010,-0.007,0.974,26.22,-657.00,-731.00,-920.00
1.710,1.718,-0.145,-0.003,-0.013,0.969,26.18,-650.00,-740.00,-927.00
1.282,1.489,-0.321,-0.005,-0.013,0.966,26.04,-657.00,-750.00,-887.00
1.832,1.718,0.153,-0.003,-0.014,0.964,26.22,-655.00,-745.00,-900.00
1.840,1.626,-0.130,-0.005,-0.014,0.968,26.22,-636.00,-733.00,-902.00
1.924,1.527,-0.168,-0.008,-0.012,0.972,26.27,-655.00,-745.00,-905.00
1.855,1.603,0.008,-0.013,-0.011,0.969,26.18,-655.00,-733.00,-900.00
1.794,1.473,-0.176,-0.003,-0.010,0.968,26.08,-650.00,-736.00,-902.00
2.008,1.695,-0.130,-0.009,-0.010,0.964,26.18,-652.00,-736.00,-912.00
1.687,1.649,-0.321,-0.000,-0.012,0.967,25.89,-636.00,-742.00,-910.00
2.115,1.718,-0.206,-0.006,-0.011,0.963,26.18,-643.00,-742.00,-897.00
1.794,1.603,-0.305,-0.008,-0.009,0.966,26.04,-660.00,-745.00,-910.00
1.817,1.740,-0.092,-0.011,-0.014,0.970,25.94,-655.00,-742.00,-910.00
1.908,1.786,-0.130,-0.004,-0.009,0.962,25.94,-652.00,-752.00,-905.00
2.000,1.656,0.076,-0.006,-0.010,0.963,25.85,-650.00,-740.00,-902.00
2.069,1.809,-0.130,-0.005,-0.013,0.967,26.04,-670.00,-745.00,-915.00
1.794,1.557,-0.053,-0.001,-0.009,0.963,26.18,-655.00,-745.00,-920.00
1.672,1.695,-0.023,-0.010,-0.012,0.965,25.94,-662.00,-745.00,-905.00
1.901,1.695,-0.321,-0.007,-0.011,0.965,26.08,-660.00,-775.00,-905.00
1.908,1.748,-0.153,-0.005,-0.015,0.971,26.08,-641.00,-740.00,-910.00
1.954,1.611,-0.214,-0.005,-0.014,0.970,25.89,-657.00,-747.00,-902.00
1.786,1.450,-0.214,-0.005,-0.011,0.969,25.94,-650.00,-742.00,-915.00
1.939,1.489,-0.282,-0.006,-0.015,0.966,25.75,-643.00,-736.00,-905.00
1.687,1.397,-0.214,-0.003,-0.011,0.966,25.89,-657.00,-747.00,-910.00
1.870,1.618,-0.313,-0.002,-0.010,0.967,25.75,-660.00,-757.00,-910.00
1.908,1.740,0.000,-0.003,-0.009,0.964,26.04,-657.00,-742.00,-917.00
1.603,1.679,-0.244,-0.008,-0.014,0.971,26.18,-650.00,-750.00,-902.00
1.496,1.878,-0.160,-0.007,-0.012,0.970,26.08,-660.00,-742.00,-917.00
1.977,1.817,-0.290,-0.003,-0.013,0.969,25.85,-647.00,-747.00,-912.00
1.763,1.763,0.008,-0.004,-0.013,0.971,25.85,-652.00,-740.00,-910.00
1.947,1.496,-0.229,-0.007,-0.013,0.966,25.85,-662.00,-747.00,-907.00
2.000,1.641,-0.229,-0.004,-0.013,0.966,25.57,-652.00,-731.00,-900.00
1.847,1.496,-0.252,-0.006,-0.009,0.967,25.89,-650.00,-745.00,-917.00
1.786,1.840,-0.107,-0.006,-0.006,0.973,25.85,-652.00,-740.00,-912.00
1.985,1.244,-0.305,-0.011,-0.012,0.966,25.66,-652.00,-752.00,-912.00
1.931,1.779,-0.122,-0.007,-0.007,0.959,25.66,-662.00,-740.00,-907.00
2.107,1.695,-0.183,-0.007,-0.012,0.969,25.85,-655.00,-755.00,-895.00
1.595,1.573,-0.198,-0.001,-0.011,0.965,26.04,-665.00,-760.00,-915.00
1.611,1.504,-0.313,-0.004,-0.014,0.968,25.57,-643.00,-740.00,-917.00
1.733,1.481,-0.328,-0.001,-0.010,0.959,25.57,-647.00,-728.00,-902.00
1.901,1.885,-0.198,-0.006,-0.013,0.966,25.57,-660.00,-742.00,-915.00
1.992,1.565,-0.191,-0.004,-0.014,0.968,25.85,-641.00,-740.00,-900.00
1.924,1.626,-0.084,-0.003,-0.010,0.970,25.66,-655.00,-731.00,-902.00
1.870,1.710,-0.076,-0.007,-0.014,0.969,25.66,-647.00,-760.00,-910.00
1.794,1.595,-0.328,-0.004,-0.012,0.969,25.85,-647.00,-737.00,-887.00
1.809,1.542,-0.076,-0.008,-0.010,0.968,25.71,-626.00,-728.00,-890.00
2.069,1.481,0.130,-0.002,-0.010,0.968,25.57,-641.00,-726.00,-885.00
1.924,1.939,-0.374,-0.001,-0.012,0.963,25.57,-645.00,-747.00,-890.00
1.756,1.763,-0.229,-0.001,-0.010,0.971,25.42,-638.00,-731.00,-902.00
1.588,1.550,-0.137,-0.007,-0.011,0.971,25.57,-636.00,-731.00,-900.00
1.908,1.679,-0.084,-0.006,-0.009,0.965,25.52,-643.00,-721.00,-885.00
1.863,1.679,-0.214,-0.002,-0.013,0.972,25.52,-643.00,-736.00,-902.00
1.878,1.763,0.046,0.002,-0.014,0.958,25.71,-647.00,-736.00,-897.00
1.931,1.855,-0.191,-0.007,-0.012,0.968,25.52,-647.00,-716.00,-892.00
1.969,1.718,-0.107,-0.008,-0.009,0.961,25.57,-647.00,-737.00,-905.00
2.008,1.885,-0.282,-0.003,-0.010,0.966,25.42,-643.00,-742.00,-895.00
1.695,1.519,-0.206,-0.003,-0.014,0.970,25.66,-636.00,-737.00,-890.00
1.802,1.687,-0.191,-0.007,-0.012,0.964,25.57,-660.00,-737.00,-887.00
1.901,1.489,-0.221,-0.007,-0.010,0.967,25.24,-647.00,-736.00,-902.00
1.863,1.511,-0.359,-0.004,-0.012,0.969,25.57,-641.00,-723.00,-890.00
2.198,1.763,-0.374,-0.006,-0.013,0.968,25.33,-628.00,-728.00,-897.00
2.038,1.473,-0.298,-0.007,-0.010,0.969,25.38,-638.00,-737.00,-887.00
1.847,1.580,-0.282,-0.003,-0.012,0.966,25.42,-643.00,-726.00,-895.00
1.901,1.649,-0.069,-0.002,-0.012,0.968,25.57,-650.00,-736.00,-907.00
1.748,1.481,-0.328,-0.003,-0.009,0.963,25.52,-652.00,-737.00,-890.00
1.725,1.679,0.038,-0.007,-0.010,0.959,25.24,-645.00,-733.00,-895.00
1.901,1.931,-0.412,-0.001,-0.011,0.963,25.52,-643.00,-726.00,-890.00
1.939,1.672,-0.084,-0.004,-0.011,0.966,25.24,-643.00,-737.00,-897.00
1.710,1.664,-0.160,0.000,-0.011,0.966,25.42,-645.00,-726.00,-902.00
2.053,1.878,-0.298,-0.000,-0.014,0.965,25.38,-650.00,-736.00,-897.00
1.947,1.542,-0.153,-0.001,-0.010,0.964,25.52,-641.00,-723.00,-897.00
2.168,1.718,-0.137,-0.003,-0.015,0.963,25.24,-638.00,-733.00,-900.00
1.885,1.664,0.046,-0.002,-0.016,0.966,25.14,-645.00,-733.00,-897.00
1.878,1.634,-0.237,-0.007,-0.014,0.965,25.33,-647.00,-726.00,-890.00
1.802,1.649,-0.168,-0.003,-0.010,0.968,25.52,-636.00,-731.00,-890.00
1.954,1.550,-0.298,-0.006,-0.014,0.966,25.42,-645.00,-728.00,-900.00
1.824,1.565,-0.321,-0.008,-0.010,0.963,25.00,-641.00,-731.00,-902.00
1.817,1.664,-0.443,-0.004,-0.010,0.967,25.24,-645.00,-737.00,-882.00
2.000,1.733,-0.336,-0.003,-0.008,0.965,25.24,-647.00,-740.00,-895.00
1.710,1.420,-0.046,-0.001,-0.011,0.965,25.38,-628.00,-737.00,-902.00
1.908,1.687,-0.069,-0.005,-0.010,0.958,25.33,-647.00,-726.00,-895.00
1.931,1.420,-0.237,-0.006,-0.013,0.971,25.14,-645.00,-742.00,-897.00
1.794,1.695,-0.359,-0.004,-0.010,0.968,25.19,-652.00,-731.00,-897.00
1.962,1.580,-0.160,-0.009,-0.013,0.970,25.00,-641.00,-731.00,-900.00
1.832,1.565,-0.137,-0.003,-0.012,0.963,25.19,-641.00,-721.00,-902.00
1.947,1.595,-0.076,-0.005,-0.011,0.963,25.33,-638.00,-726.00,-887.00
1.550,1.718,-0.168,-0.007,-0.012,0.966,25.00,-638.00,-737.00,-887.00
1.969,1.527,-0.168,-0.002,-0.005,0.966,25.24,-647.00,-737.00,-895.00
2.015,1.794,-0.031,-0.003,-0.011,0.962,25.05,-633.00,-723.00,-895.00
1.840,1.802,0.008,-0.005,-0.010,0.968,25.00,-650.00,-733.00,-902.00
1.947,1.771,0.031,0.001,-0.012,0.969,25.00,-636.00,-747.00,-895.00
1.733,1.802,-0.206,-0.006,-0.010,0.964,25.14,-636.00,-737.00,-892.00
1.763,1.649,-0.176,-0.006,-0.008,0.963,25.24,-638.00,-726.00,-892.00
1.878,1.870,-0.275,-0.005,-0.008,0.965,25.00,-641.00,-752.00,-897.00
1.901,1.931,0.137,-0.002,-0.010,0.966,25.00,-633.00,-733.00,-890.00
2.015,1.611,-0.145,-0.003,-0.007,0.964,25.00,-631.00,-733.00,-890.00
1.885,1.763,-0.183,-0.007,-0.009,0.964,25.00,-633.00,-736.00,-885.00
1.710,1.527,-0.122,-0.005,-0.012,0.967,25.19,-643.00,-736.00,-887.00
1.954,1.893,0.000,-0.005,-0.008,0.966,25.00,-655.00,-731.00,-887.00
1.733,1.611,-0.160,-0.002,-0.012,0.969,24.91,-643.00,-728.00,-900.00
1.756,2.115,-0.366,-0.004,-0.014,0.968,25.00,-638.00,-731.00,-897.00
1.626,1.618,-0.282,-0.002,-0.010,0.965,25.00,-657.00,-747.00,-895.00
2.023,1.550,-0.214,-0.004,-0.008,0.963,24.86,-645.00,-736.00,-890.00
1.786,1.702,-0.351,-0.005,-0.011,0.963,25.05,-641.00,-723.00,-887.00
1.802,1.725,-0.229,-0.001,-0.011,0.968,25.00,-650.00,-723.00,-890.00
1.908,1.771,-0.198,-0.003,-0.008,0.962,25.00,-638.00,-737.00,-887.00
1.977,1.740,-0.130,-0.006,-0.011,0.964,24.81,-645.00,-736.00,-895.00
1.702,1.511,-0.099,-0.006,-0.011,0.962,24.72,-647.00,-736.00,-887.00
1.985,1.656,0.145,-0.006,-0.012,0.963,25.00,-633.00,-723.00,-897.00
1.885,1.748,-0.137,0.000,-0.012,0.964,24.72,-650.00,-745.00,-887.00
1.771,1.679,-0.214,-0.004,-0.009,0.967,24.91,-645.00,-740.00,-912.00
1.664,1.756,-0.267,-0.005,-0.010,0.962,24.72,-643.00,-733.00,-895.00
1.687,1.794,-0.359,-0.005,-0.010,0.965,24.91,-647.00,-731.00,-887.00
1.832,1.779,-0.183,-0.002,-0.011,0.962,24.91,-650.00,-733.00,-897.00
1.992,1.725,-0.153,-0.006,-0.011,0.963,24.81,-643.00,-745.00,-902.00
1.740,1.565,-0.221,-0.005,-0.010,0.965,24.72,-647.00,-740.00,-905.00
1.977,1.687,0.046,-0.006,-0.012,0.965,24.67,-645.00,-733.00,-892.00
2.038,1.924,-0.282,-0.006,-0.009,0.963,24.67,-645.00,-736.00,-897.00
1.763,1.527,-0.244,-0.004,-0.012,0.965,24.72,-650.00,-721.00,-900.00
2.023,1.618,0.053,-0.001,-0.014,0.964,24.67,-641.00,-723.00,-905.00
1.824,1.733,-0.244,0.001,-0.014,0.965,24.91,-650.00,-728.00,-885.00
1.878,1.489,-0.221,0.001,-0.015,0.965,24.72,-650.00,-726.00,-907.00
1.672,1.573,-0.244,-0.004,-0.014,0.969,24.86,-657.00,-718.00,-895.00
1.893,1.550,-0.122,-0.004,-0.010,0.964,24.67,-636.00,-737.00,-892.00
1.901,1.664,-0.137,-0.002,-0.013,0.970,24.86,-643.00,-733.00,-882.00
2.008,1.611,-0.198,-0.005,-0.011,0.969,24.72,-638.00,-736.00,-897.00
1.779,1.832,-0.145,-0.004,-0.011,0.964,24.72,-641.00,-736.00,-892.00
2.092,1.626,-0.359,-0.004,-0.012,0.967,24.39,-647.00,-736.00,-892.00
1.740,1.496,-0.008,-0.004,-0.010,0.965,24.62,-652.00,-737.00,-902.00
1.954,1.557,-0.366,-0.006,-0.012,0.967,24.72,-645.00,-733.00,-890.00
2.076,1.924,-0.076,-0.001,-0.010,0.960,24.86,-638.00,-745.00,-885.00
1.878,1.718,-0.206,-0.007,-0.010,0.967,24.67,-647.00,-737.00,-902.00
2.038,1.634,-0.336,-0.008,-0.015,0.966,24.53,-643.00,-733.00,-887.00
2.092,1.595,-0.405,-0.001,-0.012,0.966,24.62,-655.00,-740.00,-897.00
2.023,1.802,-0.542,-0.006,-0.010,0.965,24.72,-652.00,-742.00,-890.00
2.122,1.374,-0.282,-0.004,-0.013,0.970,24.72,-643.00,-728.00,-895.00
1.687,1.618,-0.130,-0.006,-0.011,0.964,24.72,-638.00,-726.00,-897.00
1.924,1.611,-0.099,-0.003,-0.010,0.968,24.53,-647.00,-731.00,-895.00
1.947,1.664,-0.145,-0.005,-0.014,0.963,24.34,-643.00,-737.00,-895.00
2.008,1.901,-0.092,-0.005,-0.011,0.966,24.53,-641.00,-728.00,-887.00
1.885,1.725,-0.153,-0.004,-0.012,0.963,24.53,-645.00,-745.00,-910.00
2.008,1.504,-0.176,-0.000,-0.010,0.961,24.48,-643.00,-740.00,-897.00
2.092,1.649,-0.519,-0.003,-0.015,0.965,24.20,-647.00,-740.00,-892.00
1.840,1.649,-0.168,-0.005,-0.009,0.965,24.48,-660.00,-736.00,-900.00
1.992,1.397,-0.221,-0.007,-0.015,0.965,24.39,-650.00,-737.00,-895.00
1.672,1.626,-0.473,-0.004,-0.015,0.962,24.39,-655.00,-726.00,-902.00
2.107,1.840,-0.328,-0.001,-0.010,0.960,24.39,-647.00,-731.00,-897.00
1.893,1.702,0.160,-0.001,-0.009,0.964,24.29,-641.00,-740.00,-900.00
1.924,1.595,-0.023,-0.005,-0.012,0.966,24.53,-636.00,-736.00,-895.00
2.076,1.511,-0.267,-0.006,-0.007,0.963,24.62,-665.00,-737.00,-905.00
1.954,1.580,-0.015,-0.003,-0.012,0.965,24.34,-641.00,-721.00,-897.00
1.809,1.664,-0.229,-0.003,-0.011,0.964,24.29,-650.00,-742.00,-897.00
1.947,1.443,-0.168,-0.005,-0.008,0.972,24.48,-647.00,-752.00,-902.00
2.099,1.427,-0.183,-0.001,-0.016,0.968,24.53,-643.00,-721.00,-885.00
2.015,1.481,-0.344,-0.006,-0.010,0.966,24.39,-652.00,-736.00,-892.00
2.031,1.679,-0.015,-0.008,-0.015,0.970,24.34,-645.00,-728.00,-887.00
1.885,1.710,-0.153,-0.006,-0.011,0.968,24.20,-657.00,-731.00,-890.00
1.939,1.634,-0.137,-0.002,-0.011,0.964,24.62,-650.00,-737.00,-895.00
1.947,1.496,-0.351,-0.003,-0.011,0.962,24.39,-652.00,-737.00,-882.00
1.809,1.366,-0.305,-0.003,-0.011,0.966,24.29,-645.00,-728.00,-910.00
2.038,1.496,-0.191,-0.005,-0.011,0.963,24.53,-650.00,-731.00,-882.00
1.924,1.542,-0.015,-0.003,-0.009,0.967,24.20,-645.00,-736.00,-907.00
2.237,1.649,-0.130,-0.004,-0.011,0.959,24.11,-636.00,-736.00,-902.00
1.893,1.763,-0.038,-0.003,-0.008,0.963,24.34,-650.00,-728.00,-900.00
1.985,1.672,-0.260,-0.003,-0.013,0.968,24.39,-638.00,-737.00,-885.00
1.992,1.679,-0.366,-0.002,-0.009,0.964,24.29,-647.00,-728.00,-902.00
2.137,1.466,-0.412,-0.003,-0.010,0.964,24.20,-650.00,-733.00,-902.00
1.885,1.863,-0.145,-0.001,-0.015,0.963,24.34,-655.00,-736.00,-902.00
1.794,1.611,-0.023,-0.008,-0.010,0.961,24.48,-655.00,-736.00,-905.00
2.000,1.824,-0.366,-0.002,-0.010,0.962,24.29,-650.00,-728.00,-892.00
1.740,1.656,-0.267,-0.004,-0.013,0.969,24.39,-645.00,-736.00,-902.00
1.802,1.840,-0.137,-0.000,-0.013,0.959,24.29,-641.00,-728.00,-902.00
1.863,1.924,-0.359,-0.003,-0.009,0.962,24.11,-645.00,-733.00,-895.00
2.023,1.763,0.069,-0.005,-0.011,0.962,24.29,-628.00,-737.00,-895.00
1.870,1.855,-0.130,-0.005,-0.010,0.969,24.11,-641.00,-740.00,-902.00
1.931,1.802,-0.527,-0.002,-0.015,0.962,24.01,-662.00,-736.00,-900.00
1.947,1.573,-0.305,-0.002,-0.008,0.962,24.20,-645.00,-726.00,-892.00
1.901,1.466,-0.221,-0.007,-0.013,0.956,23.82,-636.00,-742.00,-895.00
2.000,1.328,-0.290,-0.005,-0.011,0.960,24.20,-655.00,-728.00,-910.00
1.977,1.519,-0.244,-0.003,-0.013,0.972,23.87,-633.00,-742.00,-892.00
1.962,1.969,-0.267,-0.002,-0.011,0.963,24.11,-645.00,-740.00,-900.00
1.924,1.740,-0.252,-0.006,-0.010,0.967,24.11,-641.00,-740.00,-897.00
2.107,1.565,-0.298,-0.002,-0.014,0.967,23.97,-665.00,-750.00,-912.00
1.511,1.672,-0.198,-0.005,-0.015,0.966,23.97,-641.00,-745.00,-885.00
2.084,1.550,-0.137,-0.003,-0.009,0.966,24.01,-636.00,-726.00,-895.00
1.878,1.740,-0.092,-0.004,-0.011,0.960,23.97,-655.00,-733.00,-890.00
2.069,1.420,-0.069,-0.001,-0.011,0.961,24.01,-650.00,-740.00,-897.00
2.069,1.374,-0.191,-0.008,-0.011,0.964,24.01,-643.00,-721.00,-892.00
1.870,1.603,0.031,-0.004,-0.007,0.962,24.01,-655.00,-750.00,-892.00
2.260,1.649,-0.099,-0.001,-0.013,0.968,24.01,-650.00,-733.00,-892.00
1.962,1.969,-0.328,-0.008,-0.009,0.969,24.01,-647.00,-731.00,-892.00
1.832,1.519,-0.252,-0.003,-0.012,0.961,23.87,-645.00,-731.00,-887.00
2.053,1.855,-0.198,-0.000,-0.014,0.962,24.01,-643.00,-733.00,-882.00
1.733,1.718,-0.137,-0.005,-0.010,0.963,23.97,-647.00,-740.00,-900.00
2.008,1.641,-0.275,-0.003,-0.012,0.964,23.82,-652.00,-736.00,-902.00
1.718,1.412,-0.229,-0.003,-0.010,0.958,24.01,-645.00,-742.00,-895.00
1.855,1.611,-0.244,-0.003,-0.010,0.966,24.11,-647.00,-736.00,-892.00
2.031,1.427,-0.282,-0.002,-0.011,0.966,24.01,-652.00,-737.00,-900.00
2.015,1.855,-0.351,-0.003,-0.009,0.965,23.87,-643.00,-742.00,-895.00
1.992,1.595,-0.214,-0.004,-0.014,0.960,23.82,-633.00,-737.00,-907.00
1.863,1.695,-0.137,-0.001,-0.007,0.967,23.97,-655.00,-726.00,-897.00
1.908,1.588,-0.053,-0.008,-0.015,0.964,23.97,-645.00,-736.00,-882.00
1.878,1.725,0.267,-0.004,-0.010,0.969,23.97,-647.00,-728.00,-895.00
1.878,1.534,-0.305,-0.002,-0.012,0.968,23.87,-655.00,-742.00,-900.00
1.947,1.855,-0.115,-0.006,-0.014,0.962,23.82,-636.00,-728.00,-900.00
2.031,1.527,-0.107,-0.006,-0.010,0.958,24.01,-652.00,-742.00,-902.00
2.290,1.969,-0.237,-0.003,-0.009,0.961,23.97,-647.00,-723.00,-887.00
1.969,1.580,-0.336,-0.010,-0.014,0.961,24.01,-655.00,-737.00,-897.00
2.031,1.870,-0.351,-0.001,-0.010,0.967,23.68,-645.00,-740.00,-905.00
2.008,1.611,0.069,-0.004,-0.011,0.961,23.49,-660.00,-745.00,-885.00
2.122,1.595,-0.076,-0.005,-0.010,0.963,23.59,-652.00,-737.00,-905.00
1.878,1.534,-0.328,-0.002,-0.010,0.966,23.59,-650.00,-737.00,-900.00
1.962,1.756,-0.176,-0.005,-0.010,0.955,23.82,-655.00,-750.00,-922.00
2.053,1.817,-0.115,0.000,-0.009,0.964,23.87,-638.00,-740.00,-902.00
2.031,1.504,-0.176,-0.002,-0.010,0.960,23.68,-645.00,-737.00,-902.00
2.198,1.588,-0.298,-0.004,-0.014,0.965,23.68,-650.00,-731.00,-912.00
2.008,1.718,-0.267,-0.004,-0.013,0.969,23.59,-643.00,-736.00,-895.00
1.908,1.779,-0.107,-0.003,-0.012,0.968,23.64,-645.00,-736.00,-915.00
1.924,1.519,-0.053,-0.004,-0.011,0.966,23.68,-652.00,-731.00,-907.00
2.053,1.733,-0.137,-0.002,-0.010,0.965,23.82,-645.00,-731.00,-897.00
1.908,1.847,0.061,-0.001,-0.011,0.967,23.68,-643.00,-733.00,-902.00
1.794,1.649,-0.099,-0.003,-0.012,0.962,23.64,-647.00,-728.00,-892.00
2.336,1.748,-0.328,-0.001,-0.009,0.958,23.68,-645.00,-736.00,-892.00
1.893,1.458,-0.359,0.001,-0.012,0.960,23.68,-643.00,-740.00,-892.00
1.840,1.748,-0.252,-0.006,-0.009,0.963,23.87,-641.00,-742.00,-897.00
2.115,1.611,-0.084,-0.002,-0.009,0.968,23.68,-652.00,-733.00,-905.00
2.046,1.611,-0.023,-0.005,-0.008,0.959,23.49,-660.00,-718.00,-897.00
2.031,1.580,-0.069,-0.003,-0.008,0.962,23.68,-657.00,-740.00,-905.00
1.954,1.771,-0.237,-0.006,-0.012,0.962,23.68,-650.00,-731.00,-902.00
1.901,1.443,-0.382,0.000,-0.010,0.964,23.64,-657.00,-737.00,-905.00
1.901,1.298,-0.351,-0.002,-0.012,0.964,23.59,-662.00,-733.00,-895.00
1.672,1.305,-0.198,0.000,-0.013,0.960,23.68,-655.00,-737.00,-887.00
1.931,1.534,-0.046,-0.005,-0.011,0.966,23.45,-645.00,-736.00,-897.00
1.718,1.313,-0.328,-0.006,-0.014,0.960,23.49,-645.00,-731.00,-887.00
1.855,1.756,-0.008,-0.002,-0.009,0.963,23.35,-652.00,-740.00,-897.00
2.115,1.588,-0.084,0.002,-0.012,0.960,23.68,-655.00,-740.00,-905.00
2.153,1.519,-0.366,-0.004,-0.012,0.964,23.45,-650.00,-733.00,-902.00
1.809,1.458,-0.076,-0.005,-0.014,0.963,23.59,-655.00,-750.00,-902.00
1.687,1.832,-0.214,-0.002,-0.011,0.965,23.49,-650.00,-716.00,-900.00
1.931,1.534,-0.221,-0.004,-0.012,0.960,23.35,-645.00,-740.00,-897.00
1.992,1.542,-0.092,-0.001,-0.008,0.963,23.45,-652.00,-733.00,-902.00
2.053,1.710,-0.015,-0.004,-0.013,0.965,23.26,-655.00,-731.00,-902.00
2.168,1.550,0.130,-0.002,-0.011,0.963,23.45,-647.00,-726.00,-887.00
1.893,1.580,-0.008,-0.002,-0.012,0.957,23.64,-655.00,-742.00,-905.00
2.015,1.542,-0.107,-0.001,-0.011,0.961,23.35,-657.00,-736.00,-902.00
1.885,1.748,-0.214,-0.002,-0.010,0.967,23.35,-662.00,-737.00,-897.00
2.221,1.641,-0.244,-0.004,-0.011,0.961,23.45,-636.00,-733.00,-900.00
2.015,1.756,-0.282,-0.000,-0.008,0.963,23.35,-647.00,-740.00,-907.00
2.053,1.504,-0.160,-0.005,-0.010,0.965,23.26,-647.00,-740.00,-900.00
2.214,1.748,0.053,-0.004,-0.008,0.961,23.45,-650.00,-736.00,-885.00
2.176,1.718,-0.504,-0.004,-0.010,0.963,23.59,-660.00,-742.00,-907.00
2.076,1.427,-0.275,-0.001,-0.012,0.970,23.64,-650.00,-728.00,-890.00
2.198,1.672,-0.221,-0.006,-0.015,0.961,23.12,-647.00,-736.00,-897.00
2.282,1.595,-0.153,-0.005,-0.009,0.964,23.35,-650.00,-767.00,-902.00
1.901,1.740,-0.008,-0.002,-0.009,0.961,23.59,-645.00,-757.00,-907.00
2.061,1.450,-0.206,-0.005,-0.007,0.962,23.45,-645.00,-745.00,-915.00
1.847,1.695,-0.244,0.002,-0.011,0.956,23.26,-655.00,-740.00,-897.00
2.214,1.885,-0.183,-0.002,-0.014,0.960,23.35,-647.00,-757.00,-897.00
2.031,1.702,0.107,-0.002,-0.011,0.962,23.35,-652.00,-742.00,-895.00
2.198,1.794,-0.099,-0.007,-0.011,0.961,23.26,-652.00,-745.00,-892.00
2.168,1.649,-0.359,-0.002,-0.011,0.964,23.17,-641.00,-737.00,-882.00
1.977,1.641,0.053,-0.003,-0.012,0.965,23.17,-645.00,-726.00,-897.00
2.275,1.550,-0.275,-0.005,-0.010,0.969,23.12,-641.00,-736.00,-912.00
2.137,1.733,-0.168,-0.001,-0.014,0.966,23.45,-652.00,-742.00,-897.00
2.122,1.939,-0.023,-0.004,-0.012,0.956,23.35,-641.00,-731.00,-892.00
2.099,1.733,-0.191,-0.003,-0.012,0.969,23.12,-643.00,-755.00,-905.00
2.122,1.626,-0.237,-0.006,-0.013,0.956,23.12,-636.00,-728.00,-907.00
2.145,1.672,0.145,-0.004,-0.014,0.955,23.07,-655.00,-740.00,-897.00
2.130,1.855,-0.115,-0.004,-0.012,0.955,23.31,-652.00,-728.00,-902.00
2.130,1.603,0.046,-0.002,-0.009,0.967,23.07,-650.00,-742.00,-897.00
2.130,1.695,-0.435,-0.002,-0.012,0.966,23.12,-665.00,-745.00,-902.00
2.092,1.924,-0.328,-0.002,-0.012,0.961,23.12,-650.00,-745.00,-907.00
2.206,1.824,-0.176,-0.001,-0.012,0.963,23.17,-645.00,-747.00,-897.00
2.153,1.870,-0.450,-0.002,-0.011,0.964,22.93,-650.00,-740.00,-895.00
2.160,1.763,-0.214,-0.000,-0.013,0.964,23.26,-647.00,-731.00,-897.00
2.107,1.656,0.000,-0.003,-0.008,0.965,23.12,-652.00,-731.00,-890.00
2.069,1.885,-0.244,-0.001,-0.006,0.967,23.26,-647.00,-740.00,-902.00
2.275,1.634,-0.198,-0.002,-0.014,0.960,23.26,-657.00,-737.00,-902.00
2.252,1.603,-0.191,-0.001,-0.011,0.960,23.31,-636.00,-752.00,-897.00
1.939,1.710,-0.267,-0.001,-0.011,0.958,23.17,-652.00,-733.00,-895.00
2.076,1.855,-0.214,-0.002,-0.011,0.963,23.07,-650.00,-742.00,-907.00
2.160,1.756,-0.069,-0.002,-0.010,0.962,22.93,-652.00,-731.00,-897.00
2.130,1.878,-0.282,-0.001,-0.007,0.963,23.12,-657.00,-731.00,-897.00
2.099,1.641,-0.313,-0.003,-0.014,0.963,23.12,-647.00,-740.00,-905.00
1.985,1.695,-0.321,-0.004,-0.012,0.960,23.12,-641.00,-740.00,-897.00
2.115,1.542,-0.221,-0.004,-0.010,0.961,23.12,-641.00,-742.00,-905.00
1.969,1.718,-0.153,0.000,-0.009,0.959,22.84,-650.00,-736.00,-887.00
2.092,1.695,-0.038,-0.001,-0.011,0.960,22.93,-641.00,-733.00,-907.00
2.298,1.740,-0.023,-0.002,-0.011,0.966,22.84,-655.00,-742.00,-902.00
2.023,1.847,-0.298,-0.002,-0.009,0.961,23.07,-636.00,-736.00,-897.00
2.160,1.481,-0.527,-0.003,-0.010,0.961,22.98,-660.00,-737.00,-917.00
1.985,1.832,-0.237,-0.000,-0.013,0.960,22.98,-652.00,-750.00,-897.00
2.305,1.718,-0.137,-0.003,-0.009,0.963,23.07,-655.00,-737.00,-897.00
2.191,1.695,-0.023,-0.001,-0.014,0.969,22.84,-667.00,-740.00,-900.00
2.191,1.840,-0.183,-0.000,-0.011,0.960,23.12,-650.00,-737.00,-895.00
1.985,1.550,-0.260,-0.001,-0.011,0.957,22.79,-643.00,-733.00,-897.00
2.061,1.626,-0.366,-0.005,-0.012,0.962,22.84,-660.00,-728.00,-905.00
2.397,1.565,-0.305,-0.004,-0.006,0.957,22.98,-643.00,-742.00,-897.00
2.160,1.740,-0.099,0.000,-0.013,0.961,22.84,-641.00,-750.00,-900.00
2.130,1.573,-0.198,-0.000,-0.012,0.958,22.74,-650.00,-750.00,-897.00
2.061,1.641,-0.137,-0.002,-0.009,0.961,22.93,-662.00,-750.00,-912.00
1.901,1.550,-0.260,-0.004,-0.013,0.963,22.93,-657.00,-736.00,-900.00
2.160,1.756,-0.115,0.000,-0.013,0.963,22.84,-657.00,-742.00,-905.00
2.206,1.641,-0.145,-0.004,-0.014,0.962,22.84,-652.00,-737.00,-907.00
1.916,1.687,-0.252,-0.001,-0.011,0.955,22.84,-643.00,-742.00,-912.00
2.015,1.626,-0.130,-0.002,-0.009,0.957,22.93,-643.00,-742.00,-890.00
1.962,1.802,-0.107,-0.003,-0.010,0.965,22.74,-645.00,-740.00,-897.00
2.260,1.870,0.061,-0.002,-0.010,0.961,22.79,-650.00,-737.00,-900.00
2.137,1.481,-0.244,-0.000,-0.012,0.960,22.79,-647.00,-745.00,-915.00
2.305,1.397,-0.115,0.001,-0.012,0.959,22.93,-652.00,-733.00,-897.00
1.939,1.664,-0.405,-0.004,-0.012,0.961,22.98,-647.00,-745.00,-902.00
2.084,1.756,-0.244,-0.001,-0.010,0.961,22.74,-652.00,-731.00,-905.00
2.405,1.656,0.015,-0.003,-0.013,0.964,22.79,-647.00,-745.00,-905.00
2.046,1.504,-0.427,-0.001,-0.014,0.962,22.79,-645.00,-733.00,-897.00
2.237,1.634,-0.176,0.000,-0.010,0.960,22.84,-660.00,-745.00,-912.00
2.191,2.084,0.061,-0.001,-0.011,0.964,22.74,-645.00,-750.00,-915.00
2.206,1.450,-0.084,-0.000,-0.010,0.965,22.84,-655.00,-740.00,-890.00
2.115,1.504,-0.229,-0.002,-0.009,0.964,22.65,-657.00,-733.00,-907.00
1.908,1.870,-0.534,-0.002,-0.014,0.961,22.79,-647.00,-752.00,-900.00
2.122,1.649,-0.290,-0.001,-0.011,0.957,22.55,-641.00,-750.00,-915.00
2.344,1.626,-0.145,-0.007,-0.008,0.959,22.98,-655.00,-742.00,-900.00
2.198,1.893,-0.237,-0.002,-0.012,0.961,22.84,-660.00,-742.00,-900.00
2.115,1.603,-0.221,0.001,-0.012,0.963,22.74,-643.00,-747.00,-912.00
2.145,1.656,-0.191,0.001,-0.011,0.965,22.74,-652.00,-745.00,-907.00
2.076,1.740,-0.206,-0.004,-0.008,0.962,22.84,-655.00,-737.00,-905.00
2.481,1.725,-0.313,-0.001,-0.009,0.959,22.74,-645.00,-745.00,-900.00
2.374,1.878,-0.275,-0.005,-0.014,0.963,22.74,-655.00,-747.00,-912.00
2.252,1.626,-0.137,-0.004,-0.012,0.963,22.74,-655.00,-740.00,-907.00
2.115,1.496,-0.389,-0.003,-0.011,0.958,22.60,-670.00,-742.00,-900.00
2.168,1.611,-0.168,-0.004,-0.009,0.963,22.74,-655.00,-742.00,-910.00
2.198,1.771,0.122,-0.003,-0.013,0.958,22.79,-647.00,-742.00,-897.00
2.267,1.450,-0.244,-0.005,-0.010,0.963,22.74,-652.00,-733.00,-902.00
2.153,1.473,-0.504,-0.003,-0.013,0.962,22.79,-650.00,-736.00,-887.00
2.359,1.817,-0.122,-0.005,-0.008,0.964,22.65,-662.00,-745.00,-895.00
2.313,1.565,-0.214,0.002,-0.009,0.969,22.60,-652.00,-752.00,-902.00
2.305,1.611,-0.061,-0.002,-0.015,0.961,22.41,-665.00,-742.00,-897.00
2.084,1.588,-0.115,0.000,-0.008,0.956,22.55,-652.00,-740.00,-910.00
2.099,1.496,-0.206,-0.003,-0.012,0.963,22.74,-645.00,-733.00,-907.00
2.244,1.779,0.031,-0.004,-0.012,0.961,22.32,-652.00,-747.00,-890.00
2.336,1.840,-0.412,-0.003,-0.013,0.960,22.46,-652.00,-731.00,-910.00
2.237,1.672,-0.031,-0.001,-0.013,0.957,22.46,-655.00,-747.00,-902.00
2.122,1.695,-0.053,-0.002,-0.012,0.960,22.60,-652.00,-747.00,-905.00
1.817,1.641,-0.397,-0.004,-0.011,0.968,22.60,-641.00,-726.00,-897.00
2.031,1.786,-0.267,-0.006,-0.012,0.966,22.41,-636.00,-736.00,-882.00
2.084,1.725,0.000,-0.002,-0.010,0.958,22.60,-650.00,-737.00,-897.00
2.008,1.802,-0.290,-0.004,-0.015,0.961,22.46,-645.00,-745.00,-897.00
2.359,1.847,-0.275,-0.003,-0.011,0.962,22.74,-647.00,-740.00,-900.00
2.122,1.672,-0.183,0.003,-0.016,0.953,22.46,-647.00,-737.00,-902.00
2.183,1.420,-0.282,-0.002,-0.008,0.959,22.32,-647.00,-733.00,-907.00
2.313,1.481,-0.076,-0.000,-0.013,0.964,22.41,-641.00,-737.00,-905.00
2.084,1.740,-0.130,-0.002,-0.011,0.961,22.46,-647.00,-745.00,-902.00
2.023,1.802,-0.168,-0.003,-0.012,0.958,22.60,-650.00,-745.00,-900.00
1.954,1.443,-0.282,-0.004,-0.012,0.965,22.55,-667.00,-740.00,-910.00
2.115,1.710,-0.107,0.002,-0.015,0.962,22.22,-652.00,-737.00,-890.00
2.061,1.420,-0.137,-0.001,-0.008,0.958,22.32,-652.00,-740.00,-905.00
2.298,1.824,0.069,-0.001,-0.011,0.963,22.41,-655.00,-745.00,-900.00
2.214,1.550,-0.115,-0.002,-0.012,0.957,22.46,-645.00,-745.00,-907.00
2.038,1.580,-0.237,-0.004,-0.012,0.958,22.27,-647.00,-737.00,-910.00
2.206,1.435,-0.008,-0.003,-0.012,0.970,22.41,-652.00,-737.00,-887.00
2.298,1.664,-0.122,-0.002,-0.012,0.963,22.41,-650.00,-750.00,-912.00
2.153,1.634,-0.275,-0.003,-0.013,0.958,22.22,-645.00,-742.00,-905.00
2.153,1.939,-0.092,-0.000,-0.010,0.963,22.46,-657.00,-752.00,-905.00
2.061,1.603,-0.046,-0.002,-0.009,0.954,22.41,-662.00,-745.00,-912.00
2.137,1.634,-0.229,-0.001,-0.011,0.960,22.22,-655.00,-728.00,-890.00
1.847,1.725,-0.275,-0.000,-0.010,0.965,22.32,-660.00,-728.00,-885.00
2.206,1.656,-0.084,-0.003,-0.014,0.961,22.32,-647.00,-747.00,-900.00
2.366,1.672,-0.382,-0.002,-0.011,0.965,22.22,-643.00,-731.00,-895.00
2.229,1.573,-0.244,-0.003,-0.008,0.956,22.08,-657.00,-742.00,-905.00
2.122,1.641,-0.214,-0.002,-0.014,0.962,22.22,-652.00,-740.00,-907.00
1.985,1.534,-0.260,-0.004,-0.013,0.955,22.41,-645.00,-745.00,-895.00
2.084,1.763,-0.191,-0.000,-0.014,0.962,22.46,-665.00,-737.00,-895.00
1.992,1.626,0.076,0.001,-0.018,0.965,22.27,-643.00,-742.00,-890.00
2.130,1.947,-0.298,-0.002,-0.012,0.961,22.46,-650.00,-742.00,-905.00
2.137,1.779,-0.145,-0.001,-0.008,0.960,22.32,-660.00,-745.00,-900.00
1.939,1.893,-0.122,-0.002,-0.009,0.963,22.08,-655.00,-740.00,-900.00
2.214,1.840,-0.168,-0.001,-0.014,0.960,22.27,-650.00,-742.00,-905.00
1.977,1.244,-0.237,-0.002,-0.015,0.957,22.22,-655.00,-745.00,-890.00
2.115,1.863,-0.168,-0.000,-0.009,0.959,22.22,-660.00,-733.00,-907.00
2.267,1.389,-0.275,-0.001,-0.011,0.956,22.22,-633.00,-737.00,-902.00
2.061,2.000,-0.076,0.002,-0.012,0.954,22.22,-657.00,-728.00,-895.00
2.336,1.527,-0.046,-0.003,-0.013,0.964,22.22,-650.00,-750.00,-905.00
2.267,1.878,-0.099,-0.002,-0.012,0.957,22.27,-645.00,-740.00,-905.00
2.260,1.695,-0.145,0.002,-0.012,0.963,22.46,-662.00,-750.00,-912.00
2.176,1.779,-0.061,-0.003,-0.010,0.958,22.08,-631.00,-726.00,-895.00
2.160,1.794,-0.168,-0.001,-0.010,0.960,22.08,-643.00,-747.00,-902.00
2.267,1.489,-0.206,0.000,-0.012,0.961,22.04,-643.00,-742.00,-900.00
2.206,1.504,0.046,-0.003,-0.011,0.965,22.08,-652.00,-733.00,-912.00
2.107,1.420,-0.160,-0.002,-0.010,0.964,22.04,-655.00,-740.00,-910.00
2.237,1.580,-0.351,-0.004,-0.012,0.963,22.32,-650.00,-737.00,-910.00
2.305,1.641,-0.282,0.001,-0.012,0.959,22.08,-652.00,-742.00,-900.00
2.145,1.511,-0.427,-0.004,-0.007,0.959,22.08,-657.00,-745.00,-905.00
2.237,1.733,0.046,-0.001,-0.012,0.959,22.04,-638.00,-740.00,-907.00
2.374,1.893,-0.397,0.001,-0.011,0.961,22.13,-665.00,-737.00,-905.00
2.084,1.573,-0.122,-0.001,-0.016,0.961,22.04,-655.00,-750.00,-915.00
2.061,1.496,0.000,-0.000,-0.010,0.959,22.13,-662.00,-742.00,-905.00
2.076,2.023,-0.244,-0.001,-0.014,0.961,22.22,-652.00,-752.00,-900.00
2.008,1.695,-0.290,-0.002,-0.010,0.963,22.08,-652.00,-740.00,-905.00
2.145,1.687,-0.168,0.003,-0.012,0.960,22.22,-641.00,-733.00,-900.00
2.107,1.725,-0.053,-0.003,-0.012,0.961,22.04,-645.00,-737.00,-895.00
2.160,1.718,0.008,-0.001,-0.012,0.964,22.04,-655.00,-752.00,-897.00
2.176,1.679,-0.252,-0.006,-0.013,0.961,21.89,-662.00,-726.00,-902.00
2.038,1.626,-0.069,-0.001,-0.012,0.956,21.94,-657.00,-745.00,-905.00
2.214,1.679,-0.435,-0.002,-0.009,0.965,21.89,-650.00,-740.00,-915.00
2.221,1.771,-0.076,0.000,-0.011,0.957,22.04,-662.00,-736.00,-915.00
2.267,1.679,-0.076,-0.003,-0.008,0.958,22.22,-645.00,-745.00,-892.00
2.176,1.802,-0.305,-0.002,-0.009,0.963,21.80,-657.00,-742.00,-907.00
2.237,1.527,-0.313,-0.002,-0.011,0.961,21.89,-652.00,-740.00,-897.00
1.893,1.779,-0.069,-0.004,-0.014,0.957,22.04,-645.00,-737.00,-912.00
2.305,1.580,-0.153,-0.005,-0.016,0.957,22.08,-647.00,-747.00,-902.00
2.137,1.557,-0.244,-0.001,-0.015,0.961,21.80,-650.00,-752.00,-902.00
2.351,1.481,-0.328,-0.001,-0.011,0.965,21.80,-643.00,-737.00,-900.00
2.282,1.649,-0.130,0.000,-0.016,0.961,21.75,-655.00,-745.00,-912.00
2.382,1.550,-0.374,-0.001,-0.009,0.963,21.89,-662.00,-752.00,-912.00
2.038,1.756,-0.237,0.002,-0.009,0.961,21.94,-645.00,-731.00,-917.00
2.237,1.664,-0.115,0.000,-0.009,0.955,21.94,-647.00,-745.00,-897.00
2.130,1.786,-0.053,-0.003,-0.009,0.964,22.04,-660.00,-737.00,-902.00
2.000,1.878,-0.008,-0.001,-0.012,0.959,21.89,-657.00,-747.00,-912.00
2.176,1.901,0.069,-0.001,-0.008,0.963,21.94,-636.00,-726.00,-905.00
2.313,1.595,-0.115,-0.002,-0.010,0.959,21.89,-657.00,-745.00,-905.00
2.336,1.679,-0.550,0.003,-0.007,0.961,22.04,-662.00,-745.00,-912.00
2.221,1.664,0.046,-0.001,-0.014,0.964,22.04,-655.00,-742.00,-900.00
2.160,1.840,-0.336,-0.001,-0.010,0.958,22.04,-655.00,-740.00,-900.00
2.137,1.931,-0.344,-0.000,-0.012,0.965,21.80,-645.00,-737.00,-892.00
2.282,1.702,-0.191,-0.004,-0.017,0.956,22.04,-643.00,-760.00,-912.00
2.290,1.687,-0.183,-0.005,-0.012,0.967,21.94,-652.00,-745.00,-907.00
2.076,1.511,-0.069,0.000,-0.011,0.965,22.04,-643.00,-737.00,-907.00
2.038,1.733,-0.115,-0.001,-0.011,0.961,21.94,-652.00,-745.00,-892.00
2.053,1.893,-0.046,-0.002,-0.010,0.958,21.89,-652.00,-745.00,-905.00
2.450,1.603,-0.458,-0.004,-0.013,0.957,22.04,-655.00,-740.00,-902.00
2.305,1.534,-0.382,-0.003,-0.013,0.963,21.61,-655.00,-745.00,-905.00
2.099,1.901,-0.038,0.002,-0.010,0.960,21.75,-655.00,-752.00,-902.00
2.076,1.573,0.023,-0.002,-0.011,0.963,21.71,-638.00,-755.00,-912.00
2.115,1.779,-0.046,-0.005,-0.013,0.961,21.75,-657.00,-728.00,-897.00
2.099,1.924,-0.130,-0.005,-0.011,0.959,21.75,-641.00,-752.00,-907.00
2.221,1.863,-0.122,-0.000,-0.014,0.953,21.80,-660.00,-737.00,-902.00
2.061,1.977,-0.382,-0.002,-0.012,0.956,21.80,-643.00,-733.00,-895.00
2.069,1.756,0.069,-0.004,-0.005,0.962,21.94,-645.00,-750.00,-905.00
2.115,1.832,-0.221,0.001,-0.014,0.962,21.80,-665.00,-757.00,-890.00
2.206,1.779,-0.160,0.001,-0.013,0.959,21.71,-657.00,-747.00,-885.00
2.176,2.046,-0.290,0.000,-0.011,0.958,21.89,-643.00,-733.00,-902.00
1.947,1.725,0.000,-0.003,-0.015,0.958,21.89,-672.00,-750.00,-895.00
2.092,1.786,-0.191,-0.005,-0.011,0.960,21.52,-652.00,-757.00,-897.00
2.160,1.695,-0.107,-0.001,-0.014,0.955,21.75,-657.00,-747.00,-900.00
2.397,1.847,-0.244,-0.002,-0.014,0.957,21.61,-667.00,-755.00,-897.00
2.466,1.542,0.031,0.001,-0.014,0.958,21.71,-645.00,-731.00,-920.00
2.145,1.649,-0.405,-0.003,-0.013,0.954,21.52,-645.00,-757.00,-902.00
2.076,1.496,-0.405,-0.003,-0.013,0.956,21.52,-655.00,-740.00,-905.00
2.031,1.763,-0.382,-0.000,-0.014,0.962,21.61,-647.00,-742.00,-900.00
2.389,1.656,-0.076,-0.002,-0.008,0.959,21.71,-650.00,-740.00,-895.00
2.176,1.557,-0.046,-0.003,-0.011,0.963,21.89,-657.00,-745.00,-902.00
2.229,1.885,-0.046,-0.006,-0.014,0.963,21.75,-650.00,-733.00,-897.00
2.183,1.656,-0.092,-0.001,-0.010,0.959,21.57,-652.00,-745.00,-907.00
2.015,1.893,-0.321,-0.003,-0.015,0.962,21.71,-650.00,-750.00,-907.00
2.076,1.893,-0.336,-0.002,-0.011,0.963,21.75,-645.00,-740.00,-907.00
2.198,1.618,-0.015,0.002,-0.014,0.956,21.61,-641.00,-737.00,-892.00
2.183,1.565,-0.191,-0.000,-0.013,0.957,21.52,-643.00,-750.00,-902.00
2.450,1.527,-0.076,-0.001,-0.010,0.954,21.61,-645.00,-736.00,-897.00
2.252,1.893,-0.153,-0.001,-0.010,0.962,21.52,-660.00,-742.00,-902.00
2.084,1.687,-0.076,-0.002,-0.010,0.956,21.61,-643.00,-750.00,-910.00
2.099,1.504,-0.206,-0.002,-0.015,0.959,21.57,-652.00,-740.00,-892.00
2.053,1.939,-0.282,-0.001,-0.008,0.960,21.42,-638.00,-762.00,-925.00
2.038,1.870,-0.092,-0.003,-0.012,0.960,21.61,-652.00,-740.00,-905.00
2.176,1.542,-0.321,-0.005,-0.015,0.963,21.42,-655.00,-745.00,-902.00
2.130,1.779,-0.527,0.000,-0.012,0.957,21.28,-655.00,-733.00,-895.00
2.092,1.710,-0.160,-0.001,-0.011,0.957,21.52,-660.00,-728.00,-907.00
2.374,1.435,-0.122,-0.003,-0.013,0.957,21.57,-655.00,-750.00,-912.00
2.122,1.374,-0.046,-0.002,-0.014,0.956,21.52,-652.00,-740.00,-915.00
2.344,1.908,-0.206,0.000,-0.016,0.957,21.52,-650.00,-745.00,-907.00
2.115,1.542,-0.153,-0.002,-0.008,0.966,21.38,-657.00,-736.00,-910.00
2.321,1.672,-0.137,-0.001,-0.011,0.962,21.38,-638.00,-740.00,-905.00
2.137,1.824,-0.122,0.003,-0.011,0.956,21.38,-657.00,-742.00,-900.00
2.198,1.672,-0.099,-0.002,-0.010,0.958,21.57,-650.00,-731.00,-900.00
2.229,1.656,-0.099,0.000,-0.012,0.957,21.52,-650.00,-740.00,-905.00
1.947,1.588,-0.374,-0.002,-0.008,0.958,21.61,-657.00,-737.00,-910.00
2.198,1.748,-0.107,-0.008,-0.011,0.958,21.28,-643.00,-737.00,-902.00
2.229,1.473,-0.084,0.001,-0.011,0.960,21.28,-662.00,-755.00,-907.00
2.198,1.870,-0.237,0.001,-0.012,0.962,21.38,-655.00,-737.00,-905.00
2.344,1.664,-0.099,0.000,-0.013,0.955,21.57,-645.00,-737.00,-905.00
2.076,1.603,-0.076,-0.003,-0.013,0.962,21.38,-655.00,-742.00,-897.00
2.321,1.427,-0.229,0.001,-0.015,0.959,21.24,-652.00,-745.00,-905.00
2.176,1.611,0.084,0.002,-0.011,0.961,21.38,-652.00,-740.00,-905.00
2.115,1.534,-0.313,-0.007,-0.012,0.964,21.38,-660.00,-745.00,-897.00
2.160,1.534,-0.076,-0.000,-0.013,0.961,21.42,-660.00,-742.00,-897.00
2.168,1.695,-0.321,-0.003,-0.014,0.962,21.52,-645.00,-747.00,-925.00
2.275,1.779,-0.076,-0.000,-0.014,0.957,21.57,-652.00,-770.00,-900.00
2.397,1.611,-0.206,-0.000,-0.014,0.954,21.38,-657.00,-728.00,-900.00
2.221,1.664,-0.237,-0.002,-0.010,0.957,21.38,-650.00,-752.00,-907.00
2.260,1.557,0.046,0.000,-0.010,0.959,21.28,-655.00,-728.00,-905.00
2.267,1.695,-0.092,-0.004,-0.014,0.956,21.28,-650.00,-740.00,-910.00
2.405,1.832,0.076,-0.001,-0.009,0.955,21.28,-636.00,-747.00,-892.00
2.076,1.504,-0.267,-0.000,-0.011,0.959,21.28,-641.00,-742.00,-910.00
2.176,1.748,-0.115,-0.003,-0.009,0.957,21.09,-652.00,-750.00,-887.00
2.107,1.489,-0.321,-0.004,-0.011,0.959,21.28,-660.00,-755.00,-927.00
2.137,1.588,-0.015,0.002,-0.012,0.962,21.19,-643.00,-745.00,-902.00
2.145,1.763,0.046,-0.003,-0.011,0.958,21.05,-650.00,-747.00,-902.00
2.023,1.336,-0.061,-0.000,-0.009,0.962,21.38,-662.00,-742.00,-905.00
2.099,1.702,-0.076,0.000,-0.011,0.961,21.09,-652.00,-757.00,-905.00
2.137,1.809,-0.198,-0.000,-0.011,0.959,21.38,-655.00,-740.00,-900.00
2.198,1.542,0.092,-0.002,-0.012,0.954,21.24,-655.00,-737.00,-892.00
2.252,1.855,-0.214,-0.005,-0.010,0.954,21.38,-638.00,-737.00,-895.00
2.267,1.634,-0.084,-0.001,-0.010,0.959,21.09,-652.00,-742.00,-902.00
2.191,1.740,-0.130,-0.001,-0.011,0.966,21.24,-655.00,-747.00,-900.00
2.023,1.786,-0.389,-0.003,-0.015,0.961,21.38,-657.00,-745.00,-925.00
2.076,1.458,-0.305,-0.004,-0.011,0.959,21.38,-641.00,-747.00,-915.00
2.076,1.870,0.046,-0.001,-0.013,0.955,21.42,-650.00,-737.00,-902.00
2.351,1.550,-0.229,0.000,-0.013,0.960,21.28,-647.00,-747.00,-917.00
2.206,1.756,-0.374,-0.001,-0.014,0.959,21.28,-655.00,-737.00,-910.00
2.206,1.802,-0.252,-0.004,-0.015,0.965,21.28,-650.00,-750.00,-917.00
2.214,1.763,-0.366,-0.001,-0.013,0.963,21.05,-652.00,-737.00,-890.00
2.382,1.786,-0.168,-0.001,-0.015,0.958,21.19,-643.00,-736.00,-925.00
2.137,1.664,-0.137,-0.000,-0.009,0.956,21.28,-647.00,-745.00,-915.00
2.275,1.397,-0.168,-0.001,-0.013,0.962,21.09,-665.00,-747.00,-912.00
2.466,1.748,0.015,0.001,-0.013,0.962,21.19,-660.00,-745.00,-910.00
2.122,1.458,-0.267,-0.001,-0.009,0.958,21.28,-657.00,-752.00,-910.00
2.053,1.740,-0.237,0.002,-0.012,0.955,21.24,-657.00,-745.00,-902.00
2.130,1.626,-0.122,-0.001,-0.011,0.957,20.91,-657.00,-750.00,-905.00
2.206,1.740,-0.458,-0.003,-0.013,0.956,21.24,-641.00,-736.00,-907.00
2.229,1.496,-0.115,-0.002,-0.011,0.956,21.09,-647.00,-733.00,-900.00
2.267,1.611,0.084,0.001,-0.011,0.955,20.86,-655.00,-740.00,-905.00
2.328,1.611,-0.198,-0.002,-0.013,0.962,21.05,-662.00,-750.00,-912.00
2.176,1.847,0.015,-0.004,-0.012,0.958,21.09,-657.00,-742.00,-900.00
2.076,1.626,-0.092,0.000,-0.011,0.959,21.05,-652.00,-736.00,-927.00
2.115,1.786,-0.313,0.000,-0.013,0.955,21.05,-652.00,-742.00,-910.00
2.344,1.969,-0.153,-0.000,-0.010,0.953,21.19,-657.00,-747.00,-912.00
2.489,1.664,-0.298,0.000,-0.011,0.958,21.09,-652.00,-742.00,-900.00
2.290,1.748,-0.221,-0.004,-0.012,0.960,20.86,-652.00,-752.00,-902.00
2.221,1.626,-0.290,-0.000,-0.014,0.959,21.00,-657.00,-737.00,-910.00
2.252,1.786,-0.397,-0.001,-0.012,0.957,21.00,-662.00,-750.00,-902.00
2.160,1.664,-0.015,-0.001,-0.010,0.959,21.05,-645.00,-736.00,-902.00
2.244,1.794,-0.137,-0.001,-0.013,0.961,21.00,-645.00,-742.00,-912.00
2.008,1.664,-0.092,-0.004,-0.014,0.959,20.77,-662.00,-742.00,-905.00
2.107,1.771,-0.130,0.001,-0.010,0.958,21.09,-665.00,-752.00,-912.00
2.076,1.611,-0.221,-0.002,-0.010,0.956,21.05,-665.00,-742.00,-912.00
2.183,1.916,-0.115,0.001,-0.011,0.957,20.77,-667.00,-745.00,-915.00
2.214,1.855,-0.298,-0.003,-0.012,0.965,21.05,-660.00,-747.00,-912.00
2.092,1.985,-0.038,-0.005,-0.014,0.957,20.86,-650.00,-736.00,-907.00
2.397,1.588,-0.084,-0.001,-0.010,0.953,21.09,-650.00,-752.00,-900.00
2.130,2.000,-0.031,-0.004,-0.014,0.959,21.05,-660.00,-755.00,-900.00
2.160,1.481,-0.321,0.003,-0.011,0.958,21.05,-650.00,-745.00,-910.00
2.382,1.595,0.023,-0.003,-0.010,0.964,20.91,-652.00,-742.00,-897.00
1.954,1.740,-0.137,0.002,-0.013,0.959,20.67,-647.00,-747.00,-905.00
2.008,1.656,-0.405,-0.001,-0.013,0.958,21.00,-655.00,-740.00,-917.00
2.160,1.916,-0.313,-0.001,-0.011,0.961,20.77,-660.00,-745.00,-902.00
2.168,2.076,0.015,-0.002,-0.013,0.962,20.91,-645.00,-737.00,-902.00
2.046,1.557,-0.298,-0.000,-0.012,0.959,20.77,-647.00,-747.00,-912.00
2.382,1.580,-0.206,-0.000,-0.010,0.952,20.67,-660.00,-737.00,-897.00
2.603,1.527,0.023,0.001,-0.012,0.958,20.91,-657.00,-747.00,-912.00
2.015,1.519,-0.229,0.001,-0.012,0.955,20.91,-657.00,-755.00,-905.00
2.130,1.412,0.092,-0.002,-0.009,0.957,20.91,-652.00,-747.00,-897.00
2.099,1.695,-0.198,-0.001,-0.013,0.962,20.86,-662.00,-750.00,-890.00
2.290,1.542,-0.252,-0.000,-0.012,0.955,20.77,-652.00,-745.00,-907.00
2.282,1.855,-0.237,-0.001,-0.008,0.957,20.77,-643.00,-745.00,-905.00
2.282,1.840,-0.191,0.000,-0.010,0.952,21.05,-655.00,-742.00,-910.00
2.153,1.809,0.023,0.000,-0.012,0.956,20.77,-657.00,-731.00,-905.00
2.298,1.656,-0.191,0.003,-0.012,0.962,20.67,-636.00,-745.00,-900.00
2.183,1.847,-0.183,-0.000,-0.017,0.964,20.77,-660.00,-750.00,-922.00
2.321,1.641,-0.168,-0.002,-0.013,0.959,21.00,-655.00,-742.00,-885.00
2.168,1.702,-0.160,0.003,-0.010,0.961,20.77,-662.00,-750.00,-902.00
2.107,1.893,-0.168,-0.003,-0.009,0.958,20.72,-655.00,-742.00,-915.00
2.076,1.611,-0.160,-0.001,-0.011,0.959,20.86,-650.00,-742.00,-910.00
2.084,1.794,-0.038,-0.010,-0.011,0.957,20.77,-650.00,-745.00,-895.00
2.000,1.710,-0.214,-0.001,-0.010,0.959,21.00,-652.00,-742.00,-907.00
2.122,1.573,-0.122,0.003,-0.011,0.959,20.77,-657.00,-742.00,-900.00
2.328,1.649,-0.260,-0.001,-0.011,0.955,20.53,-662.00,-755.00,-902.00
2.229,1.664,-0.069,0.003,-0.008,0.962,20.53,-652.00,-755.00,-917.00
2.237,1.656,-0.122,-0.002,-0.010,0.965,20.72,-655.00,-750.00,-900.00
2.275,1.771,-0.290,0.003,-0.013,0.955,20.77,-652.00,-757.00,-917.00
2.328,1.740,-0.282,0.001,-0.017,0.961,20.77,-650.00,-747.00,-900.00
2.573,1.618,-0.244,0.001,-0.011,0.959,20.53,-657.00,-745.00,-907.00
2.160,1.450,-0.496,-0.001,-0.009,0.955,20.77,-655.00,-750.00,-917.00
2.305,1.756,-0.137,-0.001,-0.011,0.960,20.53,-675.00,-747.00,-902.00
2.023,1.740,-0.214,0.000,-0.010,0.957,20.72,-647.00,-750.00,-917.00
2.053,1.733,-0.008,0.003,-0.011,0.953,20.91,-647.00,-750.00,-895.00
2.244,1.885,-0.328,-0.001,-0.012,0.961,20.77,-662.00,-745.00,-902.00
2.244,1.687,-0.267,0.004,-0.011,0.956,20.67,-660.00,-750.00,-907.00
2.450,1.840,-0.053,-0.000,-0.012,0.950,20.77,-660.00,-750.00,-920.00
2.092,1.802,-0.237,0.002,-0.014,0.956,20.67,-655.00,-731.00,-905.00
2.389,1.748,-0.244,0.000,-0.012,0.958,20.67,-665.00,-752.00,-920.00
2.107,1.656,-0.237,0.000,-0.013,0.957,20.72,-667.00,-747.00,-892.00
2.191,1.519,-0.053,-0.002,-0.010,0.956,21.00,-641.00,-742.00,-895.00
2.038,1.969,-0.351,-0.002,-0.011,0.958,20.53,-657.00,-752.00,-905.00
2.290,1.511,-0.092,-0.001,-0.011,0.956,20.72,-650.00,-740.00,-902.00
2.168,1.557,-0.366,-0.002,-0.011,0.954,20.53,-657.00,-750.00,-892.00
2.344,1.817,-0.229,-0.001,-0.013,0.958,20.67,-647.00,-750.00,-907.00
2.145,1.519,-0.221,0.002,-0.012,0.957,20.53,-647.00,-737.00,-915.00
2.145,1.824,-0.168,-0.002,-0.009,0.961,20.58,-660.00,-750.00,-905.00
2.252,1.496,-0.061,0.002,-0.012,0.959,20.34,-655.00,-740.00,-900.00
2.031,1.534,-0.115,0.003,-0.011,0.958,20.53,-660.00,-740.00,-910.00
2.282,1.344,0.076,0.000,-0.014,0.958,20.72,-655.00,-752.00,-925.00
2.031,1.542,-0.427,-0.002,-0.014,0.958,20.53,-650.00,-742.00,-907.00
2.107,1.618,-0.198,-0.000,-0.016,0.958,20.67,-665.00,-762.00,-897.00
2.305,1.824,-0.321,0.000,-0.011,0.957,20.67,-638.00,-742.00,-907.00
2.221,1.779,-0.412,-0.004,-0.010,0.962,20.67,-660.00,-737.00,-910.00
2.435,1.740,-0.076,-0.001,-0.012,0.958,20.86,-657.00,-747.00,-902.00
2.244,1.603,-0.435,0.001,-0.014,0.952,20.67,-652.00,-733.00,-900.00
2.160,1.756,-0.145,-0.001,-0.012,0.957,20.34,-660.00,-745.00,-907.00
2.069,1.557,-0.183,0.000,-0.012,0.960,20.39,-655.00,-745.00,-922.00
2.252,1.534,-0.107,-0.001,-0.013,0.961,20.25,-660.00,-733.00,-902.00
1.939,1.740,0.015,-0.004,-0.011,0.958,20.48,-657.00,-740.00,-910.00
2.153,1.687,-0.092,-0.001,-0.014,0.955,20.39,-655.00,-750.00,-910.00
2.427,1.664,0.053,-0.001,-0.014,0.953,20.34,-655.00,-740.00,-905.00
2.344,1.718,-0.130,-0.002,-0.011,0.963,20.48,-657.00,-760.00,-905.00
2.328,1.832,0.008,-0.001,-0.009,0.954,20.34,-650.00,-747.00,-915.00
2.374,1.740,-0.008,-0.001,-0.013,0.954,20.53,-657.00,-747.00,-907.00
2.298,2.053,-0.290,-0.001,-0.013,0.951,20.53,-652.00,-752.00,-915.00
2.260,1.649,0.038,-0.006,-0.010,0.961,20.58,-660.00,-755.00,-910.00
2.405,1.962,-0.130,0.000,-0.013,0.957,20.53,-647.00,-747.00,-920.00
2.405,1.908,-0.015,0.004,-0.011,0.956,20.53,-662.00,-733.00,-907.00
2.313,1.916,-0.183,0.001,-0.012,0.956,20.48,-647.00,-747.00,-910.00
2.267,1.718,-0.237,0.003,-0.013,0.958,20.34,-660.00,-757.00,-910.00
2.298,1.664,-0.366,0.001,-0.010,0.964,20.67,-647.00,-752.00,-902.00
2.282,1.977,0.038,-0.001,-0.009,0.962,20.39,-662.00,-736.00,-910.00
2.313,1.641,-0.130,-0.003,-0.012,0.954,20.34,-655.00,-750.00,-907.00
2.282,1.725,-0.183,-0.002,-0.010,0.959,20.34,-672.00,-755.00,-915.00
1.908,1.626,-0.023,-0.004,-0.013,0.964,20.39,-647.00,-731.00,-897.00
2.229,2.137,-0.038,0.000,-0.013,0.959,20.53,-647.00,-745.00,-915.00
2.290,1.595,-0.115,0.004,-0.014,0.955,20.15,-652.00,-742.00,-907.00
2.313,1.855,-0.092,-0.000,-0.015,0.959,20.48,-650.00,-745.00,-907.00
2.176,1.420,-0.122,-0.002,-0.014,0.958,20.15,-662.00,-757.00,-915.00
2.153,1.847,-0.099,0.000,-0.009,0.955,20.15,-662.00,-745.00,-915.00
2.351,1.794,-0.221,-0.001,-0.012,0.958,20.34,-652.00,-745.00,-922.00
2.168,1.901,0.038,0.001,-0.009,0.961,20.34,-647.00,-737.00,-907.00
2.519,1.618,-0.153,0.004,-0.014,0.957,20.25,-657.00,-750.00,-912.00
2.168,1.748,-0.038,0.003,-0.011,0.959,20.06,-657.00,-737.00,-900.00
2.252,1.855,-0.305,0.000,-0.008,0.963,20.25,-660.00,-752.00,-907.00
2.481,1.748,-0.046,-0.001,-0.015,0.959,20.34,-643.00,-745.00,-900.00
2.321,1.908,-0.275,0.003,-0.011,0.959,20.34,-655.00,-752.00,-897.00
2.176,1.664,-0.366,-0.004,-0.013,0.959,20.34,-665.00,-750.00,-912.00
2.046,1.664,0.053,-0.003,-0.010,0.959,20.25,-665.00,-755.00,-895.00
2.489,1.634,0.023,-0.002,-0.009,0.954,20.34,-647.00,-740.00,-912.00
2.344,1.618,-0.252,0.000,-0.011,0.953,20.34,-657.00,-752.00,-905.00
2.260,1.794,-0.305,-0.002,-0.015,0.958,20.15,-662.00,-750.00,-912.00
2.107,1.702,-0.260,-0.002,-0.010,0.953,20.06,-665.00,-745.00,-910.00
2.237,1.725,0.084,0.000,-0.011,0.960,20.15,-655.00,-757.00,-917.00
2.137,1.870,-0.275,0.001,-0.012,0.959,20.34,-643.00,-750.00,-912.00
2.237,1.649,-0.137,-0.003,-0.011,0.958,20.34,-657.00,-740.00,-912.00
2.435,1.763,-0.328,-0.004,-0.012,0.958,19.87,-657.00,-737.00,-902.00
2.267,1.695,-0.137,0.001,-0.012,0.954,20.34,-662.00,-750.00,-905.00
2.145,1.672,-0.183,0.000,-0.011,0.954,20.34,-657.00,-747.00,-912.00
2.107,2.183,-0.092,0.001,-0.010,0.952,20.25,-657.00,-750.00,-902.00
2.229,1.702,-0.344,-0.000,-0.014,0.959,20.39,-657.00,-755.00,-910.00
2.145,1.786,-0.214,0.002,-0.012,0.954,20.34,-657.00,-745.00,-917.00
2.176,1.733,-0.122,-0.001,-0.013,0.961,20.34,-665.00,-747.00,-907.00
2.206,1.802,-0.137,0.005,-0.010,0.961,20.39,-641.00,-745.00,-900.00
2.237,2.061,-0.107,0.002,-0.011,0.959,20.25,-655.00,-747.00,-912.00
2.282,2.038,-0.061,-0.003,-0.013,0.958,19.97,-650.00,-745.00,-920.00
2.237,1.725,-0.069,0.001,-0.010,0.960,20.20,-655.00,-750.00,-910.00
2.511,1.527,-0.412,-0.003,-0.012,0.961,20.25,-652.00,-747.00,-902.00
2.252,1.626,-0.168,0.003,-0.014,0.956,20.06,-657.00,-737.00,-895.00
2.107,1.618,-0.328,-0.000,-0.012,0.961,20.06,-647.00,-752.00,-915.00
2.153,1.779,0.000,-0.000,-0.008,0.960,20.15,-628.00,-731.00,-902.00
2.366,1.817,-0.015,0.002,-0.012,0.960,20.15,-655.00,-760.00,-905.00
2.298,1.550,-0.122,0.001,-0.013,0.952,20.06,-636.00,-740.00,-912.00
2.328,1.634,-0.061,0.002,-0.013,0.958,19.97,-662.00,-760.00,-915.00
2.237,1.809,-0.084,-0.000,-0.011,0.956,20.15,-660.00,-752.00,-915.00
2.313,1.863,-0.435,-0.003,-0.013,0.952,20.06,-657.00,-740.00,-917.00
2.313,2.053,-0.061,-0.002,-0.013,0.961,19.82,-650.00,-750.00,-912.00
2.160,1.656,-0.313,-0.002,-0.013,0.962,19.97,-645.00,-745.00,-900.00
2.214,1.947,-0.267,-0.000,-0.010,0.949,20.15,-650.00,-745.00,-902.00
2.282,1.672,-0.099,0.000,-0.013,0.961,20.15,-652.00,-755.00,-917.00
2.115,1.855,0.053,-0.006,-0.009,0.954,20.06,-657.00,-757.00,-902.00
1.985,1.763,0.099,0.001,-0.011,0.958,20.01,-643.00,-750.00,-922.00
2.282,1.695,-0.137,-0.002,-0.017,0.958,19.97,-645.00,-740.00,-905.00
2.115,1.733,-0.061,-0.002,-0.011,0.952,20.06,-660.00,-755.00,-900.00
2.130,1.779,-0.198,-0.002,-0.011,0.961,20.15,-655.00,-745.00,-907.00
2.305,1.565,-0.168,0.000,-0.012,0.957,20.01,-652.00,-760.00,-897.00
2.183,1.412,-0.282,0.001,-0.015,0.956,20.01,-657.00,-750.00,-912.00
2.473,1.771,-0.176,-0.001,-0.012,0.960,20.15,-667.00,-745.00,-900.00
2.336,1.740,-0.061,-0.001,-0.008,0.961,19.82,-662.00,-750.00,-912.00
2.153,1.588,-0.076,-0.005,-0.009,0.960,19.97,-647.00,-752.00,-917.00
2.137,1.664,-0.321,-0.001,-0.013,0.956,19.97,-665.00,-752.00,-910.00
2.061,1.809,-0.107,-0.003,-0.013,0.958,19.87,-657.00,-742.00,-917.00
2.076,1.855,-0.282,-0.003,-0.012,0.962,20.01,-645.00,-750.00,-905.00
2.718,1.718,-0.313,0.002,-0.012,0.959,19.64,-652.00,-747.00,-900.00
2.122,1.603,-0.214,-0.001,-0.013,0.960,19.97,-652.00,-747.00,-915.00
2.053,1.687,-0.244,0.003,-0.011,0.959,19.97,-650.00,-757.00,-902.00
2.122,1.870,-0.275,0.004,-0.011,0.958,20.01,-665.00,-767.00,-912.00
2.496,1.695,-0.290,-0.002,-0.013,0.956,19.87,-647.00,-731.00,-905.00
2.046,1.733,-0.153,-0.003,-0.015,0.956,20.15,-643.00,-750.00,-922.00
2.145,1.573,-0.061,0.004,-0.008,0.958,20.01,-657.00,-755.00,-907.00
2.221,1.832,-0.290,0.002,-0.012,0.955,19.87,-662.00,-755.00,-912.00
2.427,1.580,0.076,-0.000,-0.008,0.958,19.82,-657.00,-740.00,-917.00
2.107,1.649,-0.160,-0.002,-0.011,0.956,19.73,-650.00,-750.00,-895.00
2.122,1.550,-0.008,-0.002,-0.011,0.960,19.64,-660.00,-745.00,-902.00
2.198,1.656,-0.229,0.005,-0.012,0.958,20.06,-662.00,-740.00,-905.00
2.313,1.573,-0.023,0.000,-0.011,0.960,19.82,-665.00,-750.00,-910.00
2.374,1.924,-0.244,-0.000,-0.014,0.959,19.82,-657.00,-747.00,-920.00
2.198,1.985,-0.099,0.001,-0.015,0.956,19.73,-657.00,-755.00,-925.00
2.298,1.595,0.053,0.005,-0.008,0.957,20.01,-657.00,-740.00,-910.00
2.237,1.725,-0.176,0.000,-0.011,0.956,19.87,-660.00,-755.00,-912.00
2.603,2.115,-0.313,0.006,-0.010,0.953,20.06,-647.00,-747.00,-915.00
2.183,1.855,0.023,0.001,-0.010,0.959,20.01,-662.00,-757.00,-910.00
2.412,1.550,-0.092,0.003,-0.013,0.959,19.82,-662.00,-750.00,-912.00
2.321,1.725,-0.214,0.000,-0.008,0.960,19.82,-662.00,-767.00,-912.00
2.412,1.969,-0.336,-0.002,-0.011,0.962,19.87,-660.00,-747.00,-895.00
2.313,1.626,-0.092,0.002,-0.013,0.958,19.97,-645.00,-752.00,-897.00
2.496,1.779,0.008,-0.001,-0.013,0.959,19.82,-655.00,-742.00,-912.00
2.328,1.443,-0.069,0.006,-0.007,0.962,20.06,-657.00,-745.00,-912.00
2.267,1.473,0.130,0.002,-0.013,0.959,19.82,-660.00,-747.00,-910.00
2.328,1.626,-0.191,0.002,-0.012,0.959,19.82,-667.00,-750.00,-920.00
2.214,1.733,-0.237,0.003,-0.011,0.953,19.73,-650.00,-750.00,-900.00
2.099,1.954,-0.237,0.000,-0.010,0.955,19.68,-655.00,-752.00,-905.00
2.519,1.557,-0.092,0.002,-0.011,0.956,20.01,-647.00,-757.00,-915.00
2.290,1.802,-0.084,0.002,-0.010,0.957,19.54,-657.00,-752.00,-912.00
2.328,1.611,-0.229,0.002,-0.012,0.954,19.97,-657.00,-737.00,-897.00
2.084,1.840,-0.405,0.002,-0.008,0.954,19.73,-662.00,-745.00,-920.00
2.458,1.756,-0.511,0.000,-0.011,0.954,19.82,-645.00,-755.00,-905.00
2.275,1.664,-0.092,0.000,-0.010,0.954,19.82,-667.00,-747.00,-915.00
2.336,1.588,-0.267,-0.000,-0.009,0.956,19.68,-655.00,-745.00,-917.00
2.260,1.908,-0.282,-0.003,-0.010,0.955,19.73,-678.00,-742.00,-925.00
2.137,1.779,-0.405,0.001,-0.012,0.955,19.82,-655.00,-752.00,-907.00
2.153,1.756,-0.267,-0.001,-0.013,0.955,19.64,-652.00,-747.00,-905.00
2.076,1.580,-0.031,-0.002,-0.017,0.960,19.64,-655.00,-755.00,-910.00
2.313,1.779,-0.069,0.000,-0.013,0.955,19.45,-645.00,-755.00,-917.00
2.336,1.924,-0.168,0.001,-0.009,0.960,19.87,-650.00,-752.00,-907.00
2.344,1.733,-0.130,0.001,-0.010,0.953,19.64,-650.00,-736.00,-910.00
1.985,1.550,-0.069,0.001,-0.013,0.959,19.97,-645.00,-755.00,-915.00
2.389,1.672,-0.160,-0.000,-0.011,0.959,19.73,-647.00,-745.00,-907.00
2.405,1.679,-0.252,-0.002,-0.010,0.962,19.54,-655.00,-742.00,-915.00
2.099,1.740,-0.130,-0.001,-0.011,0.958,19.82,-652.00,-745.00,-917.00
2.160,1.687,-0.122,0.002,-0.010,0.954,19.54,-645.00,-757.00,-912.00
2.145,1.802,-0.168,0.001,-0.011,0.956,19.82,-650.00,-755.00,-905.00
2.420,1.763,-0.061,0.003,-0.010,0.958,19.68,-657.00,-747.00,-902.00
2.206,1.756,-0.130,-0.002,-0.013,0.956,19.73,-662.00,-755.00,-910.00
2.183,1.847,-0.076,0.002,-0.012,0.960,19.45,-672.00,-750.00,-895.00
2.305,1.870,0.145,-0.003,-0.011,0.958,19.64,-652.00,-762.00,-917.00
2.000,1.832,-0.244,0.000,-0.011,0.956,19.54,-660.00,-752.00,-920.00
2.176,1.725,-0.145,0.003,-0.011,0.952,19.54,-650.00,-742.00,-900.00
2.153,1.542,-0.275,-0.002,-0.013,0.954,19.49,-655.00,-740.00,-915.00
2.321,1.840,-0.267,-0.001,-0.015,0.955,19.54,-660.00,-750.00,-907.00
2.389,1.565,-0.099,0.004,-0.011,0.957,19.68,-670.00,-745.00,-910.00
2.214,1.779,-0.015,0.000,-0.015,0.964,19.64,-643.00,-750.00,-910.00
2.420,1.504,-0.107,-0.000,-0.009,0.954,19.54,-660.00,-742.00,-907.00
2.221,1.870,0.015,0.002,-0.012,0.957,19.49,-665.00,-742.00,-910.00
2.107,1.603,-0.191,-0.001,-0.010,0.954,19.49,-652.00,-737.00,-915.00
2.130,1.710,-0.130,0.004,-0.013,0.956,19.21,-665.00,-750.00,-900.00
2.450,1.885,-0.237,0.001,-0.012,0.954,19.49,-660.00,-762.00,-912.00
2.176,1.557,0.137,0.001,-0.013,0.952,19.64,-650.00,-757.00,-907.00
2.359,1.603,-0.229,-0.002,-0.014,0.957,19.68,-657.00,-752.00,-905.00
2.565,1.702,-0.244,-0.002,-0.011,0.959,19.49,-650.00,-762.00,-907.00
2.198,1.557,-0.260,0.002,-0.009,0.959,19.45,-667.00,-752.00,-915.00
2.420,1.824,-0.153,-0.001,-0.012,0.952,19.49,-655.00,-752.00,-910.00
2.282,1.794,0.038,0.005,-0.010,0.956,19.35,-652.00,-747.00,-907.00
2.397,1.794,0.008,0.000,-0.011,0.956,19.54,-667.00,-767.00,-917.00
2.412,1.672,-0.076,0.000,-0.009,0.955,19.31,-655.00,-757.00,-920.00
2.115,1.626,-0.282,-0.002,-0.017,0.958,19.54,-660.00,-747.00,-922.00
2.389,1.710,0.069,-0.001,-0.010,0.950,19.73,-643.00,-750.00,-922.00
2.229,1.824,-0.015,0.001,-0.016,0.948,19.64,-662.00,-747.00,-912.00
2.366,1.763,-0.069,0.002,-0.014,0.954,19.54,-662.00,-752.00,-920.00
2.282,1.748,-0.130,0.001,-0.011,0.952,19.45,-647.00,-755.00,-917.00
2.122,1.573,-0.038,-0.002,-0.011,0.960,19.35,-652.00,-757.00,-912.00
2.282,1.656,0.015,0.002,-0.011,0.952,19.49,-675.00,-737.00,-905.00
1.962,1.885,-0.290,-0.001,-0.009,0.949,19.64,-662.00,-747.00,-912.00
2.382,1.992,0.244,0.000,-0.012,0.954,19.35,-660.00,-747.00,-910.00
2.168,1.664,-0.336,0.001,-0.011,0.956,19.45,-655.00,-755.00,-910.00
2.397,1.901,-0.168,0.001,-0.010,0.959,19.31,-652.00,-760.00,-915.00
2.366,1.695,-0.290,0.000,-0.012,0.957,19.31,-650.00,-740.00,-902.00
2.282,1.702,-0.069,-0.000,-0.012,0.951,19.45,-650.00,-750.00,-902.00
2.069,1.863,-0.435,0.003,-0.009,0.955,19.31,-662.00,-747.00,-917.00
2.557,1.458,-0.229,0.000,-0.014,0.954,19.49,-655.00,-762.00,-900.00
2.405,1.656,-0.176,0.002,-0.012,0.953,19.45,-647.00,-750.00,-900.00
2.420,1.794,-0.328,0.001,-0.012,0.953,19.49,-657.00,-762.00,-905.00
2.321,1.588,-0.229,0.002,-0.012,0.953,19.21,-655.00,-757.00,-905.00
2.099,1.626,-0.260,-0.001,-0.010,0.949,19.35,-662.00,-755.00,-917.00
2.298,1.656,0.122,0.000,-0.012,0.955,19.45,-665.00,-733.00,-930.00
2.252,1.847,-0.122,0.002,-0.014,0.956,19.54,-645.00,-745.00,-902.00
2.374,1.855,-0.137,-0.001,-0.010,0.955,19.35,-660.00,-757.00,-910.00
2.290,1.695,0.069,0.000,-0.011,0.952,19.49,-665.00,-760.00,-917.00
2.397,1.450,-0.313,-0.001,-0.010,0.957,19.31,-660.00,-757.00,-920.00
2.191,1.771,-0.153,0.000,-0.011,0.963,19.35,-657.00,-745.00,-912.00
2.099,1.649,-0.099,-0.000,-0.007,0.958,19.45,-660.00,-752.00,-920.00
2.427,1.916,-0.153,0.000,-0.015,0.959,19.54,-678.00,-757.00,-922.00
2.198,1.618,-0.122,0.003,-0.014,0.951,19.31,-670.00,-760.00,-915.00
2.282,1.908,-0.015,-0.004,-0.011,0.959,19.35,-652.00,-750.00,-917.00
2.450,1.794,-0.038,0.002,-0.011,0.954,19.21,-662.00,-752.00,-907.00
2.183,1.664,-0.229,0.000,-0.011,0.959,19.31,-665.00,-755.00,-927.00
2.244,1.863,-0.214,0.000,-0.012,0.958,19.31,-662.00,-770.00,-910.00
2.099,2.084,-0.076,-0.002,-0.010,0.955,19.31,-657.00,-750.00,-912.00
2.405,1.740,-0.176,0.003,-0.010,0.954,19.35,-655.00,-747.00,-922.00
2.435,1.588,-0.061,0.002,-0.014,0.958,19.31,-650.00,-762.00,-907.00
2.405,1.733,-0.069,-0.001,-0.009,0.957,19.31,-660.00,-750.00,-902.00
2.382,1.908,-0.076,-0.003,-0.015,0.957,19.17,-662.00,-762.00,-907.00
2.206,1.695,-0.168,0.003,-0.012,0.959,19.31,-655.00,-736.00,-910.00
2.176,1.809,-0.305,-0.002,-0.013,0.958,19.21,-662.00,-747.00,-912.00
2.313,1.534,-0.084,-0.002,-0.012,0.956,19.31,-655.00,-757.00,-907.00
2.206,1.733,-0.260,0.002,-0.010,0.955,19.31,-655.00,-755.00,-912.00
2.427,1.771,-0.099,0.000,-0.011,0.955,19.31,-657.00,-750.00,-907.00
2.145,1.626,-0.153,0.000,-0.012,0.956,19.31,-652.00,-760.00,-902.00
2.527,1.885,-0.252,0.000,-0.009,0.952,19.31,-660.00,-740.00,-902.00
2.260,1.863,-0.183,0.001,-0.009,0.952,19.31,-657.00,-757.00,-912.00
2.130,1.702,-0.198,-0.001,-0.013,0.954,19.31,-657.00,-760.00,-897.00
2.443,1.702,-0.168,-0.002,-0.010,0.958,19.31,-643.00,-740.00,-905.00
2.260,1.466,-0.099,-0.000,-0.016,0.955,19.31,-652.00,-760.00,-902.00
2.405,1.626,-0.015,0.000,-0.013,0.950,18.98,-672.00,-757.00,-907.00
2.130,1.924,-0.214,0.002,-0.016,0.955,19.31,-665.00,-747.00,-907.00
2.466,1.733,-0.420,0.001,-0.011,0.949,19.21,-652.00,-745.00,-920.00
2.252,1.771,-0.237,0.004,-0.012,0.953,19.02,-670.00,-762.00,-915.00
2.298,1.702,-0.198,0.003,-0.008,0.959,19.02,-670.00,-750.00,-902.00
2.267,2.069,-0.053,0.004,-0.010,0.961,19.02,-657.00,-767.00,-907.00
2.252,1.786,-0.374,-0.001,-0.014,0.958,19.02,-647.00,-757.00,-917.00
2.176,1.992,-0.069,-0.001,-0.012,0.951,19.02,-657.00,-750.00,-900.00
2.084,2.046,-0.305,0.000,-0.013,0.954,19.21,-652.00,-750.00,-912.00
2.061,1.519,-0.099,-0.001,-0.013,0.950,19.02,-662.00,-755.00,-905.00
2.168,1.527,-0.069,0.001,-0.012,0.953,19.31,-662.00,-745.00,-912.00
2.489,1.916,-0.328,-0.001,-0.009,0.956,18.93,-655.00,-740.00,-917.00
2.366,1.710,-0.084,-0.000,-0.010,0.965,19.21,-650.00,-747.00,-922.00
2.466,1.511,-0.046,0.003,-0.009,0.954,19.21,-652.00,-750.00,-915.00
2.435,1.847,-0.076,0.004,-0.012,0.955,19.21,-667.00,-750.00,-912.00
2.389,1.809,-0.237,0.001,-0.012,0.950,19.17,-647.00,-747.00,-905.00
2.420,1.809,-0.198,0.002,-0.010,0.957,19.02,-655.00,-757.00,-907.00
2.252,1.893,-0.198,0.004,-0.012,0.955,18.98,-665.00,-740.00,-912.00
2.282,1.725,-0.321,0.002,-0.013,0.952,19.02,-657.00,-752.00,-912.00
2.076,1.756,-0.252,-0.001,-0.009,0.950,19.02,-657.00,-745.00,-917.00
2.382,1.771,-0.061,0.002,-0.012,0.957,18.93,-650.00,-737.00,-927.00
2.366,1.817,-0.092,0.002,-0.014,0.958,19.02,-662.00,-762.00,-912.00
2.282,1.695,-0.137,-0.000,-0.013,0.957,19.17,-665.00,-740.00,-910.00
2.450,1.695,-0.282,-0.002,-0.013,0.951,19.02,-652.00,-740.00,-910.00
1.992,1.748,-0.344,0.002,-0.014,0.949,18.84,-657.00,-757.00,-910.00
2.084,1.664,-0.130,0.001,-0.011,0.951,19.17,-672.00,-740.00,-917.00
2.145,1.847,-0.061,0.005,-0.010,0.953,18.84,-665.00,-736.00,-920.00
1.992,1.962,-0.214,-0.002,-0.012,0.960,19.21,-660.00,-755.00,-917.00
2.183,1.542,-0.107,0.004,-0.010,0.953,19.21,-652.00,-755.00,-917.00
2.450,1.931,-0.160,0.002,-0.015,0.952,19.12,-660.00,-752.00,-910.00
2.229,1.824,-0.084,0.004,-0.011,0.955,18.98,-641.00,-742.00,-910.00
2.359,1.649,-0.198,0.002,-0.013,0.950,19.02,-650.00,-760.00,-895.00
2.229,1.664,-0.153,-0.003,-0.011,0.954,19.02,-655.00,-760.00,-915.00
2.038,1.595,-0.206,0.002,-0.010,0.958,18.84,-652.00,-750.00,-912.00
2.260,1.664,-0.153,0.006,-0.011,0.955,18.84,-655.00,-755.00,-907.00
2.321,1.763,-0.061,-0.001,-0.012,0.955,18.84,-657.00,-736.00,-912.00
2.130,1.641,0.053,0.000,-0.008,0.956,18.98,-650.00,-752.00,-912.00
2.221,1.817,-0.260,0.005,-0.013,0.949,18.79,-670.00,-747.00,-915.00
2.206,1.863,-0.359,0.001,-0.011,0.951,18.84,-660.00,-752.00,-900.00
2.282,1.336,-0.122,0.001,-0.010,0.959,18.98,-655.00,-750.00,-910.00
2.252,1.855,-0.435,0.005,-0.011,0.948,18.84,-650.00,-760.00,-900.00
2.229,1.511,-0.282,-0.001,-0.011,0.960,18.84,-650.00,-742.00,-920.00
2.282,1.603,-0.214,0.000,-0.009,0.952,18.98,-647.00,-750.00,-910.00
2.275,1.824,-0.038,-0.000,-0.013,0.954,19.02,-655.00,-755.00,-915.00
2.198,1.931,-0.145,-0.001,-0.010,0.956,18.98,-660.00,-752.00,-915.00
2.489,1.687,-0.053,0.001,-0.012,0.955,19.02,-643.00,-750.00,-910.00
2.137,1.771,-0.046,0.001,-0.011,0.949,18.60,-662.00,-750.00,-915.00
2.160,1.977,-0.153,-0.002,-0.008,0.954,18.98,-662.00,-750.00,-917.00
2.282,1.794,-0.290,0.005,-0.008,0.947,19.02,-655.00,-742.00,-895.00
2.252,1.634,-0.198,-0.000,-0.010,0.954,18.93,-660.00,-752.00,-915.00
2.145,2.038,-0.412,0.000,-0.012,0.953,18.84,-650.00,-752.00,-915.00
2.267,1.832,-0.038,-0.001,-0.014,0.957,18.84,-665.00,-745.00,-905.00
2.405,1.618,-0.046,-0.001,-0.011,0.957,19.02,-657.00,-755.00,-922.00
2.000,1.779,-0.176,-0.006,-0.010,0.953,18.93,-657.00,-755.00,-917.00
2.229,1.748,-0.023,0.003,-0.011,0.958,18.84,-647.00,-762.00,-910.00
2.237,1.885,-0.115,0.003,-0.013,0.955,18.84,-652.00,-765.00,-917.00
2.412,1.656,-0.084,0.001,-0.011,0.953,18.79,-665.00,-755.00,-910.00
2.145,1.748,-0.267,-0.001,-0.011,0.948,19.02,-652.00,-740.00,-917.00
2.405,1.649,-0.183,0.004,-0.010,0.953,18.98,-652.00,-750.00,-905.00
2.405,1.733,-0.183,0.003,-0.013,0.956,18.79,-662.00,-740.00,-912.00
2.473,1.794,-0.206,-0.001,-0.010,0.949,18.60,-650.00,-760.00,-900.00
2.466,1.679,-0.069,0.002,-0.018,0.955,18.69,-660.00,-742.00,-912.00
2.275,1.992,-0.084,0.002,-0.009,0.953,18.84,-657.00,-745.00,-902.00
2.313,1.618,-0.053,0.000,-0.009,0.951,18.69,-655.00,-747.00,-920.00
2.275,1.481,-0.389,-0.000,-0.013,0.953,18.60,-643.00,-757.00,-912.00
2.092,1.763,-0.084,0.001,-0.009,0.958,18.98,-672.00,-755.00,-917.00
2.328,1.863,-0.061,-0.000,-0.011,0.956,18.84,-655.00,-747.00,-915.00
2.206,2.069,-0.298,0.002,-0.012,0.952,18.79,-660.00,-745.00,-925.00
2.458,1.725,-0.115,-0.002,-0.012,0.958,18.60,-665.00,-750.00,-917.00
2.336,1.733,-0.061,0.001,-0.011,0.952,18.46,-665.00,-745.00,-895.00
2.221,1.382,-0.122,-0.004,-0.005,0.960,18.79,-667.00,-750.00,-905.00
2.168,1.809,-0.282,0.005,-0.012,0.952,18.60,-655.00,-742.00,-917.00
2.153,1.763,-0.244,0.001,-0.010,0.963,18.93,-670.00,-750.00,-915.00
2.519,1.794,0.053,0.003,-0.012,0.951,18.79,-667.00,-755.00,-912.00
2.382,1.656,-0.275,-0.001,-0.012,0.953,18.65,-643.00,-775.00,-905.00
2.061,1.634,-0.214,-0.002,-0.016,0.955,18.65,-652.00,-757.00,-912.00
2.237,1.786,-0.198,-0.000,-0.010,0.957,18.84,-650.00,-733.00,-900.00
2.298,1.817,-0.137,0.001,-0.011,0.956,18.69,-652.00,-747.00,-925.00
2.191,1.878,-0.260,0.003,-0.009,0.948,18.84,-652.00,-747.00,-912.00
2.206,1.832,-0.344,-0.000,-0.012,0.960,18.93,-665.00,-740.00,-915.00
2.267,1.763,-0.145,0.001,-0.010,0.957,18.98,-660.00,-740.00,-915.00
2.244,1.695,-0.015,0.004,-0.011,0.951,18.60,-672.00,-767.00,-922.00
2.550,1.969,-0.115,-0.001,-0.009,0.952,18.46,-662.00,-747.00,-922.00
2.260,1.748,-0.221,0.001,-0.013,0.954,18.69,-675.00,-760.00,-897.00
2.489,1.664,-0.214,-0.000,-0.010,0.956,18.93,-655.00,-742.00,-892.00
2.321,2.237,-0.099,0.003,-0.010,0.953,18.60,-657.00,-760.00,-905.00
2.397,1.954,0.023,0.002,-0.011,0.957,18.84,-670.00,-755.00,-900.00
2.573,1.573,-0.405,0.003,-0.014,0.955,18.46,-657.00,-752.00,-917.00
1.985,1.840,0.000,0.001,-0.013,0.954,18.69,-655.00,-755.00,-905.00
2.382,1.824,-0.351,-0.000,-0.012,0.952,18.79,-657.00,-740.00,-900.00
2.061,1.672,-0.260,0.003,-0.010,0.955,18.60,-676.00,-752.00,-907.00
2.779,1.908,-0.252,0.003,-0.005,0.953,18.65,-660.00,-750.00,-915.00
2.260,1.824,-0.115,-0.001,-0.011,0.956,18.60,-670.00,-767.00,-925.00
2.313,1.901,-0.038,-0.001,-0.012,0.951,18.69,-655.00,-740.00,-917.00
2.282,1.954,-0.206,-0.000,-0.011,0.954,18.65,-662.00,-750.00,-910.00
2.344,1.740,-0.229,0.003,-0.013,0.956,18.60,-645.00,-762.00,-920.00
2.344,1.542,0.000,-0.003,-0.009,0.958,18.46,-652.00,-752.00,-907.00
2.336,1.840,-0.336,0.002,-0.013,0.950,18.84,-652.00,-742.00,-910.00
2.084,1.710,-0.397,0.001,-0.011,0.954,18.65,-670.00,-752.00,-920.00
2.656,1.901,-0.122,0.004,-0.011,0.956,18.60,-665.00,-762.00,-907.00
2.626,2.008,-0.076,0.001,-0.009,0.952,18.41,-667.00,-752.00,-902.00
2.527,1.611,-0.244,0.000,-0.012,0.956,18.41,-652.00,-750.00,-905.00
2.603,1.901,-0.229,0.004,-0.013,0.957,18.69,-650.00,-765.00,-907.00
2.160,1.725,-0.137,0.003,-0.015,0.954,18.69,-650.00,-757.00,-907.00
2.351,1.710,-0.137,0.002,-0.012,0.954,18.65,-647.00,-752.00,-915.00
2.328,1.802,-0.267,0.000,-0.012,0.954,18.60,-650.00,-745.00,-912.00
2.176,1.802,-0.137,0.000,-0.012,0.954,18.69,-662.00,-765.00,-915.00
2.351,1.557,-0.031,0.000,-0.011,0.952,18.60,-660.00,-747.00,-922.00
2.107,1.679,0.000,0.002,-0.011,0.952,18.60,-672.00,-765.00,-910.00
2.198,1.580,-0.321,0.001,-0.009,0.957,18.46,-660.00,-752.00,-917.00
2.473,1.611,-0.229,0.000,-0.012,0.952,18.79,-655.00,-745.00,-920.00
2.595,1.725,0.031,0.000,-0.008,0.955,18.65,-655.00,-762.00,-895.00
2.351,1.611,-0.145,0.000,-0.012,0.953,18.41,-652.00,-760.00,-910.00
1.695,2.229,0.076,0.002,-0.011,0.959,18.60,-665.00,-752.00,-905.00
1.794,2.145,0.092,0.006,-0.014,0.962,18.60,-655.00,-750.00,-907.00
1.725,2.130,0.168,0.001,-0.011,0.965,18.46,-652.00,-737.00,-907.00
1.756,1.870,-0.145,0.006,-0.014,0.955,18.46,-665.00,-752.00,-912.00
1.573,1.885,0.092,0.000,-0.011,0.959,18.60,-667.00,-752.00,-917.00
1.504,1.908,0.221,-0.000,-0.011,0.963,18.60,-647.00,-765.00,-905.00
1.275,2.107,0.237,0.003,-0.010,0.963,18.69,-650.00,-745.00,-905.00
1.710,2.092,0.137,0.001,-0.009,0.967,18.51,-662.00,-747.00,-912.00
1.626,2.168,0.176,0.003,-0.012,0.962,18.41,-652.00,-747.00,-912.00
1.618,2.107,-0.160,0.004,-0.014,0.962,18.60,-675.00,-760.00,-902.00
1.748,1.931,-0.069,0.001,-0.012,0.955,18.41,-665.00,-755.00,-912.00
1.702,2.198,-0.153,0.001,-0.013,0.947,18.32,-660.00,-755.00,-912.00
1.611,2.053,-0.031,0.002,-0.013,0.960,18.60,-645.00,-752.00,-917.00
1.511,1.702,-0.053,-0.001,-0.010,0.961,18.41,-657.00,-747.00,-902.00
1.718,2.153,-0.183,0.005,-0.015,0.958,18.60,-665.00,-765.00,-922.00
1.641,2.473,-0.153,0.005,-0.009,0.952,18.46,-672.00,-747.00,-895.00
1.473,1.840,0.214,0.005,-0.009,0.958,18.32,-660.00,-760.00,-920.00
1.435,2.588,-0.046,0.010,-0.012,0.955,18.32,-655.00,-742.00,-892.00
1.458,2.374,-0.221,0.004,-0.012,0.956,18.46,-662.00,-750.00,-907.00
1.534,2.191,0.092,0.007,-0.008,0.959,18.41,-652.00,-745.00,-917.00
1.641,2.382,0.038,0.009,-0.010,0.956,18.27,-678.00,-757.00,-927.00
1.786,2.122,-0.107,0.007,-0.011,0.961,18.41,-662.00,-757.00,-912.00
1.313,2.405,-0.107,0.007,-0.001,0.963,18.46,-662.00,-757.00,-915.00
1.511,2.031,-0.275,0.004,-0.010,0.957,18.18,-665.00,-750.00,-905.00
1.496,2.366,-0.198,0.002,-0.013,0.962,18.32,-660.00,-755.00,-915.00
1.748,2.298,-0.137,0.002,-0.014,0.958,18.60,-645.00,-760.00,-907.00
1.519,2.214,0.122,0.002,-0.010,0.962,18.65,-662.00,-752.00,-917.00
1.656,2.160,0.229,0.003,-0.013,0.963,18.46,-655.00,-745.00,-920.00
1.359,2.191,0.084,0.005,-0.008,0.961,18.60,-662.00,-765.00,-917.00
1.534,2.214,-0.031,0.002,-0.014,0.961,18.41,-657.00,-752.00,-917.00
1.656,2.237,0.031,0.007,-0.013,0.957,18.32,-652.00,-750.00,-930.00
1.794,1.992,-0.107,0.005,-0.011,0.958,18.41,-665.00,-762.00,-920.00
1.962,2.061,-0.061,0.004,-0.012,0.963,18.41,-660.00,-755.00,-912.00
1.359,2.366,0.099,0.005,-0.009,0.962,18.41,-660.00,-760.00,-917.00
1.679,2.313,-0.145,0.002,-0.006,0.961,18.27,-667.00,-750.00,-907.00
1.779,2.115,0.237,0.001,-0.012,0.959,18.41,-667.00,-755.00,-917.00
1.634,2.053,-0.282,0.006,-0.009,0.967,18.18,-647.00,-762.00,-912.00
1.756,2.298,-0.015,0.003,-0.010,0.958,18.41,-655.00,-765.00,-925.00
1.565,2.244,-0.015,0.004,-0.011,0.959,18.32,-662.00,-736.00,-920.00
1.664,2.176,0.038,0.005,-0.009,0.962,17.99,-660.00,-755.00,-917.00
1.725,2.031,-0.214,0.000,-0.007,0.961,18.13,-660.00,-752.00,-907.00
1.588,2.176,-0.008,0.005,-0.010,0.961,18.27,-657.00,-747.00,-922.00
1.611,2.351,-0.053,0.000,-0.012,0.965,18.18,-675.00,-762.00,-912.00
1.557,2.389,-0.229,0.002,-0.009,0.958,18.18,-645.00,-755.00,-912.00
1.565,2.038,-0.191,0.002,-0.010,0.959,18.08,-672.00,-755.00,-900.00
1.634,2.183,-0.115,0.005,-0.011,0.960,18.18,-657.00,-750.00,-912.00
1.634,2.221,-0.115,0.003,-0.011,0.961,18.27,-665.00,-757.00,-912.00
1.435,1.756,0.038,-0.001,-0.012,0.963,18.32,-652.00,-750.00,-920.00
1.550,2.000,-0.305,0.000,-0.010,0.964,18.13,-655.00,-762.00,-910.00
1.740,2.023,-0.038,0.005,-0.013,0.962,18.32,-655.00,-755.00,-912.00
1.420,1.977,0.107,0.003,-0.008,0.959,18.41,-662.00,-760.00,-917.00
1.885,1.962,-0.107,0.002,-0.010,0.963,18.41,-667.00,-752.00,-912.00
1.656,2.038,-0.069,0.004,-0.014,0.964,18.27,-657.00,-747.00,-912.00
1.611,2.420,-0.168,0.001,-0.012,0.958,18.32,-662.00,-750.00,-912.00
1.763,2.115,-0.122,0.005,-0.009,0.963,18.18,-650.00,-752.00,-907.00
1.656,1.916,-0.160,0.002,-0.009,0.962,18.32,-652.00,-750.00,-905.00
1.626,2.412,0.137,0.004,-0.013,0.962,18.41,-665.00,-752.00,-920.00
1.855,2.427,-0.046,0.006,-0.011,0.962,18.18,-662.00,-752.00,-917.00
1.511,2.130,-0.084,0.004,-0.012,0.959,18.27,-660.00,-757.00,-925.00
1.527,2.145,-0.008,0.003,-0.011,0.960,18.32,-670.00,-762.00,-915.00
1.771,2.099,-0.046,0.006,-0.012,0.952,18.18,-665.00,-755.00,-910.00
1.832,2.435,0.008,0.008,-0.010,0.956,18.08,-650.00,-742.00,-907.00
1.588,2.305,-0.015,0.001,-0.009,0.955,18.08,-657.00,-745.00,-912.00
1.687,2.137,0.000,0.004,-0.012,0.961,18.32,-662.00,-767.00,-912.00
1.573,2.000,-0.252,-0.001,-0.010,0.958,18.27,-660.00,-755.00,-912.00
1.534,2.053,-0.214,-0.001,-0.009,0.959,18.18,-662.00,-765.00,-917.00
1.817,2.160,-0.015,0.000,-0.013,0.967,18.27,-657.00,-757.00,-920.00
1.664,2.168,-0.221,0.001,-0.011,0.958,18.27,-662.00,-745.00,-907.00
1.519,2.069,-0.023,0.001,-0.012,0.958,18.13,-665.00,-747.00,-902.00
1.748,2.237,0.206,0.002,-0.012,0.964,18.27,-667.00,-752.00,-915.00
1.779,2.298,-0.160,0.001,-0.010,0.954,17.99,-657.00,-755.00,-910.00
